sep=,
PacketCounter,SampleTimeFine,Euler_X,Euler_Y,Euler_Z,Acc_X,Acc_Y,Acc_Z,Gyr_X,Gyr_Y,Gyr_Z,
0, 1767607266, -73.7452163696289, -73.96534729003906, -46.23090744018555, 0, 0, 0, 0, 0, 0, 
1, 1767615599, -73.74166107177734, -73.9638900756836, -46.235130310058594, 9.336639404296875, -3.365605592727661, -0.5126696825027466, 1.4603828191757202, 1.286666989326477, 0.6624993085861206, 
2, 1767623932, -73.75302124023438, -73.97515869140625, -46.21660614013672, 9.574835777282715, -2.9176089763641357, 1.1854405403137207, 2.279730796813965, 0.0654059424996376, -0.5387954115867615, 
3, 1767632265, -73.75189971923828, -73.98027038574219, -46.2138786315918, 9.870758056640625, -2.1513218879699707, 0.4750089943408966, 1.9732568264007568, 0.84418123960495, -0.030634626746177673, 
4, 1767640598, -73.72772979736328, -73.97422790527344, -46.23748016357422, 9.477253913879395, -1.6939817667007446, 1.7281132936477661, 1.6944971084594727, 1.974486231803894, 1.073121190071106, 
5, 1767648931, -73.74266052246094, -73.96794128417969, -46.23019027709961, 9.239479064941406, -2.297154664993286, 1.1581321954727173, 0.5222101807594299, 1.010443091392517, 1.3775463104248047, 
6, 1767657264, -73.73875427246094, -73.9638442993164, -46.237545013427734, 9.215690612792969, -3.307321310043335, 0.28862014412879944, 1.1379508972167969, 1.476212501525879, 0.9395686388015747, 
7, 1767665597, -73.75616455078125, -73.97168731689453, -46.21418762207031, 9.364439010620117, -3.1506667137145996, 0.5950449109077454, 2.121537208557129, 0.09698829054832458, -0.14802466332912445, 
8, 1767673930, -73.74059295654297, -73.97927856445312, -46.223907470703125, 9.76810073852539, -2.401822328567505, 0.5243010520935059, 2.260878801345825, 1.080728530883789, -0.3752997815608978, 
9, 1767682263, -73.73822021484375, -73.97718811035156, -46.223262786865234, 9.76195240020752, -1.6732478141784668, 1.8092807531356812, 1.8789705038070679, 1.1542413234710693, 0.7858062386512756, 
10, 1767690596, -73.73099517822266, -73.96963500976562, -46.23645782470703, 9.249241828918457, -1.9315532445907593, 0.8639083504676819, 1.059775948524475, 1.6345595121383667, 1.3471934795379639, 
11, 1767698929, -73.73934173583984, -73.9651870727539, -46.23728561401367, 9.212672233581543, -3.084869861602783, 1.1170611381530762, 0.6636520028114319, 1.1355942487716675, 1.1196110248565674, 
12, 1767707262, -73.7405014038086, -73.96971130371094, -46.23242950439453, 9.28805160522461, -3.4172933101654053, -0.3306690752506256, 1.9452600479125977, 0.7958214282989502, 0.05674833431839943, 
13, 1767715595, -73.7326889038086, -73.97941589355469, -46.232818603515625, 9.782384872436523, -2.637744903564453, 0.9318992495536804, 2.415409803390503, 0.7899046540260315, -0.5866172313690186, 
14, 1767723928, -73.73811340332031, -73.98209381103516, -46.22542190551758, 9.804488182067871, -1.7959920167922974, 1.0278202295303345, 1.69321608543396, 0.7070168852806091, 0.34421688318252563, 
15, 1767732261, -73.71691131591797, -73.97257995605469, -46.248409271240234, 9.289497375488281, -1.739230990409851, 1.3518898487091064, 1.4227299690246582, 2.1535041332244873, 1.414687156677246, 
16, 1767740594, -73.74250793457031, -73.96847534179688, -46.232608795166016, 9.15511703491211, -2.6855850219726562, 1.4159553050994873, 0.015816789120435715, 0.7210278511047363, 1.200270175933838, 
17, 1767748927, -73.73693084716797, -73.9669189453125, -46.23749923706055, 9.3687105178833, -3.4044504165649414, -0.5233917832374573, 1.6079463958740234, 1.2333894968032837, 0.7276620268821716, 
18, 1767757260, -73.7470474243164, -73.97708129882812, -46.2198600769043, 9.562202453613281, -2.9344959259033203, 1.2044827938079834, 2.3496832847595215, 0.19985505938529968, -0.4763479232788086, 
19, 1767765593, -73.74189758300781, -73.98201751708984, -46.221275329589844, 9.82031536102295, -2.1956214904785156, 0.38382259011268616, 1.9786100387573242, 0.981063723564148, -0.0453115850687027, 
20, 1767773926, -73.71825408935547, -73.97552490234375, -46.24372482299805, 9.454634666442871, -1.6911823749542236, 1.8390177488327026, 1.7221348285675049, 1.9657005071640015, 1.1274490356445312, 
21, 1767782259, -73.73588562011719, -73.96956634521484, -46.233890533447266, 9.167390823364258, -2.2282052040100098, 1.1187260150909424, 0.5422405004501343, 0.9918215870857239, 1.3107956647872925, 
22, 1767790592, -73.73141479492188, -73.96629333496094, -46.24192810058594, 9.290020942687988, -3.2718210220336914, 0.2937055230140686, 1.1287040710449219, 1.3875104188919067, 0.8964598774909973, 
23, 1767798925, -73.74652862548828, -73.97459411621094, -46.220787048339844, 9.376876831054688, -3.1828935146331787, 0.46323809027671814, 2.1482529640197754, 0.1503683626651764, -0.22584068775177002, 
24, 1767807258, -73.7275390625, -73.9822998046875, -46.23504638671875, 9.859277725219727, -2.4531397819519043, 0.5109816193580627, 2.1610348224639893, 1.21730375289917, -0.4251963198184967, 
25, 1767815591, -73.72057342529297, -73.98120880126953, -46.2416877746582, 9.657022476196289, -1.7152276039123535, 1.7566070556640625, 1.6162455081939697, 1.2551360130310059, 0.6583243012428284, 
26, 1767823924, -73.71681213378906, -73.97317504882812, -46.2484016418457, 9.318325996398926, -1.9050918817520142, 0.8998664021492004, 1.2035489082336426, 1.5869170427322388, 1.3961423635482788, 
27, 1767832257, -73.72708129882812, -73.96826171875, -46.2465705871582, 9.191961288452148, -2.9973721504211426, 1.1615891456604004, 0.5042033195495605, 1.2081336975097656, 1.1150004863739014, 
28, 1767840590, -73.73029327392578, -73.97156524658203, -46.23542404174805, 9.33554744720459, -3.348829746246338, -0.22574110329151154, 2.0129330158233643, 0.6820173859596252, 0.28310132026672363, 
29, 1767848923, -73.7270736694336, -73.98014068603516, -46.23183059692383, 9.651108741760254, -2.70979380607605, 1.0572350025177002, 2.3245813846588135, 0.7007670402526855, -0.42063698172569275, 
30, 1767857256, -73.7283706665039, -73.98280334472656, -46.22795867919922, 9.883034706115723, -1.9292497634887695, 0.9894214272499084, 1.784454107284546, 0.8149809241294861, 0.324493944644928, 
31, 1767865589, -73.70112609863281, -73.97430419921875, -46.25580978393555, 9.286604881286621, -1.7805322408676147, 1.3425157070159912, 1.4495736360549927, 2.2166173458099365, 1.3019587993621826, 
32, 1767873922, -73.72434997558594, -73.96935272216797, -46.24336242675781, 9.233419418334961, -2.7062995433807373, 1.2996214628219604, 0.1701425462961197, 0.8745339512825012, 1.2191991806030273, 
33, 1767882255, -73.72054290771484, -73.96700286865234, -46.2458381652832, 9.312140464782715, -3.4472715854644775, -0.42459726333618164, 1.6969558000564575, 1.2611041069030762, 0.7819385528564453, 
34, 1767890588, -73.7281723022461, -73.97772979736328, -46.22939682006836, 9.549644470214844, -2.9043776988983154, 1.0535324811935425, 2.5598740577697754, 0.12452360987663269, -0.48562031984329224, 
35, 1767898921, -73.72492218017578, -73.98396301269531, -46.22812271118164, 9.833014488220215, -2.1250908374786377, 0.4204561114311218, 2.065032482147217, 0.8520959615707397, -0.17614908516407013, 
36, 1767907254, -73.70298767089844, -73.97900390625, -46.25043869018555, 9.512818336486816, -1.64090895652771, 1.9631197452545166, 1.5558470487594604, 1.9088627099990845, 0.9558592438697815, 
37, 1767915587, -73.71820831298828, -73.97247314453125, -46.24200439453125, 9.19288444519043, -2.184239625930786, 1.1303613185882568, 0.49762052297592163, 1.0212011337280273, 1.4125609397888184, 
38, 1767923920, -73.71773529052734, -73.96742248535156, -46.247249603271484, 9.28577995300293, -3.2565011978149414, 0.44524073600769043, 0.9732514023780823, 1.4394816160202026, 1.0686386823654175, 
39, 1767932253, -73.73546600341797, -73.97567749023438, -46.2239990234375, 9.377321243286133, -3.236668825149536, 0.4420662820339203, 2.0778651237487793, 0.08630716800689697, -0.2025829702615738, 
40, 1767940586, -73.7160415649414, -73.98359680175781, -46.236934661865234, 9.751626968383789, -2.4992825984954834, 0.5489034652709961, 2.2382872104644775, 1.205008864402771, -0.4456877112388611, 
41, 1767948919, -73.71726989746094, -73.9828109741211, -46.23365020751953, 9.736493110656738, -1.7089927196502686, 1.5322948694229126, 1.7478771209716797, 1.0255812406539917, 0.6563519835472107, 
42, 1767957252, -73.70335388183594, -73.97510528564453, -46.249637603759766, 9.211139678955078, -1.859712839126587, 0.8993197083473206, 1.2165865898132324, 1.8296890258789062, 1.3157905340194702, 
43, 1767965585, -73.71560668945312, -73.97014617919922, -46.245052337646484, 9.190174102783203, -2.98758864402771, 1.285580039024353, 0.5524606108665466, 1.0515539646148682, 1.2128723859786987, 
44, 1767973918, -73.71928405761719, -73.97171783447266, -46.23796844482422, 9.32724666595459, -3.363792896270752, -0.329074889421463, 1.906813383102417, 0.8203087449073792, 0.41521957516670227, 
45, 1767982251, -73.71546173095703, -73.98089599609375, -46.23470687866211, 9.72139835357666, -2.732435703277588, 1.044059157371521, 2.3574445247650146, 0.6927241683006287, -0.4918444752693176, 
46, 1767990584, -73.72062683105469, -73.9839859008789, -46.227569580078125, 9.840300559997559, -1.9676004648208618, 0.9720695614814758, 1.7407305240631104, 0.6908031105995178, 0.3026449978351593, 
47, 1767998917, -73.69622039794922, -73.97550964355469, -46.25333786010742, 9.378260612487793, -1.7716037034988403, 1.3242690563201904, 1.4835894107818604, 2.205756902694702, 1.2697871923446655, 
48, 1768007250, -73.72012329101562, -73.97080993652344, -46.24257278442383, 9.115803718566895, -2.5693509578704834, 1.3826874494552612, 0.1584368497133255, 0.7571438550949097, 1.2604635953903198, 
49, 1768015583, -73.71334838867188, -73.96931457519531, -46.249629974365234, 9.343817710876465, -3.368195056915283, -0.40150880813598633, 1.4749062061309814, 1.310206651687622, 0.6970018148422241, 
50, 1768023916, -73.72456359863281, -73.97994232177734, -46.230712890625, 9.443391799926758, -2.9164834022521973, 1.0247225761413574, 2.355881929397583, 0.144528329372406, -0.5136422514915466, 
51, 1768032249, -73.72100830078125, -73.98558807373047, -46.23046875, 9.855679512023926, -2.1609206199645996, 0.4672626852989197, 1.976637601852417, 0.9042977690696716, -0.11178051680326462, 
52, 1768040582, -73.70024108886719, -73.97881317138672, -46.25143814086914, 9.507497787475586, -1.6792978048324585, 1.841363787651062, 1.5852010250091553, 1.9185190200805664, 1.1769357919692993, 
53, 1768048915, -73.71688842773438, -73.97138977050781, -46.24260711669922, 9.24924087524414, -2.237654447555542, 1.0451160669326782, 0.5417794585227966, 1.0713794231414795, 1.4695526361465454, 
54, 1768057248, -73.714111328125, -73.96672821044922, -46.24449920654297, 9.261954307556152, -3.3360373973846436, 0.3900642395019531, 1.1199183464050293, 1.380184531211853, 1.07137930393219, 
55, 1768065581, -73.72674560546875, -73.97422790527344, -46.225318908691406, 9.373435974121094, -3.254791021347046, 0.353370726108551, 2.161444664001465, 0.17826226353645325, -0.09779515117406845, 
56, 1768073914, -73.71446228027344, -73.98300170898438, -46.23112869262695, 9.77138614654541, -2.4622294902801514, 0.5804073214530945, 2.3230702877044678, 0.9925132393836975, -0.5286778211593628, 
57, 1768082247, -73.71392059326172, -73.98291778564453, -46.23004150390625, 9.732078552246094, -1.6710600852966309, 1.6615830659866333, 1.717908263206482, 1.067793369293213, 0.5518971085548401, 
58, 1768090580, -73.70450592041016, -73.97425842285156, -46.24269485473633, 9.292454719543457, -1.819504737854004, 0.8728302717208862, 1.1924835443496704, 1.7138358354568481, 1.4751367568969727, 
59, 1768098913, -73.72206115722656, -73.96875, -46.23310089111328, 9.196649551391602, -2.9060559272766113, 1.4191688299179077, 0.5256425738334656, 0.9807819724082947, 1.2579023838043213, 
60, 1768107246, -73.72714233398438, -73.97083282470703, -46.22737503051758, 9.318839073181152, -3.3616087436676025, -0.4642234444618225, 1.8191869258880615, 0.708195149898529, 0.42587506771087646, 
61, 1768115579, -73.72178649902344, -73.98072052001953, -46.22496795654297, 9.608323097229004, -2.770974636077881, 1.1836246252059937, 2.424502372741699, 0.6195186376571655, -0.5236061215400696, 
62, 1768123912, -73.7308578491211, -73.98430633544922, -46.21295928955078, 9.85442066192627, -2.000572443008423, 0.6494846940040588, 1.8207240104675293, 0.6011533141136169, 0.23312796652317047, 
63, 1768132245, -73.70173645019531, -73.97520446777344, -46.24274444580078, 9.353155136108398, -1.7413737773895264, 1.5089374780654907, 1.585405945777893, 2.353320598602295, 1.301113486289978, 
64, 1768140578, -73.72826385498047, -73.96989440917969, -46.227046966552734, 9.24504280090332, -2.5267488956451416, 1.2740715742111206, 0.15941019356250763, 0.6873451471328735, 1.3593602180480957, 
65, 1768148911, -73.7241439819336, -73.96749877929688, -46.232704162597656, 9.319376945495605, -3.3666279315948486, -0.2293241322040558, 1.3696058988571167, 1.3631255626678467, 0.7556326985359192, 
66, 1768157244, -73.73662567138672, -73.97771453857422, -46.20650863647461, 9.540627479553223, -3.0029213428497314, 0.993848979473114, 2.355933427810669, 0.04762967303395271, -0.39079639315605164, 
67, 1768165577, -73.72463989257812, -73.98271179199219, -46.21495056152344, 9.787114143371582, -2.257704257965088, 0.45778509974479675, 2.0096287727355957, 1.1138733625411987, -0.06367699056863785, 
68, 1768173910, -73.70820617675781, -73.9781494140625, -46.230812072753906, 9.601364135742188, -1.700666069984436, 1.8074495792388916, 1.6596359014511108, 1.7618112564086914, 0.9199993014335632, 
69, 1768182243, -73.7208480834961, -73.9708480834961, -46.2245979309082, 9.204747200012207, -2.103750228881836, 1.0155272483825684, 0.726970374584198, 1.1487855911254883, 1.4285953044891357, 
70, 1768190576, -73.71416473388672, -73.96719360351562, -46.23611068725586, 9.253556251525879, -3.249203681945801, 0.6211296916007996, 0.9793474078178406, 1.5147361755371094, 0.9069872498512268, 
71, 1768198909, -73.72711181640625, -73.97347259521484, -46.217464447021484, 9.293993949890137, -3.242225408554077, 0.27638542652130127, 2.1153643131256104, 0.29862356185913086, -0.015317311510443687, 
72, 1768207242, -73.71195983886719, -73.98240661621094, -46.2221794128418, 9.775785446166992, -2.492832899093628, 0.6347382068634033, 2.3856201171875, 0.9924620389938354, -0.5091341733932495, 
73, 1768215575, -73.71337890625, -73.98282623291016, -46.220680236816406, 9.736403465270996, -1.7287628650665283, 1.5961638689041138, 1.6692923307418823, 0.9118539690971375, 0.5696477890014648, 
74, 1768223908, -73.69974517822266, -73.97380828857422, -46.23728942871094, 9.360843658447266, -1.8592603206634521, 0.9657859802246094, 1.2392550706863403, 1.9343230724334717, 1.4209625720977783, 
75, 1768232241, -73.71109771728516, -73.9686508178711, -46.23411178588867, 9.170196533203125, -2.9105944633483887, 1.356910228729248, 0.5270769000053406, 1.1737850904464722, 1.1575714349746704, 
76, 1768240574, -73.70862579345703, -73.97008514404297, -46.23457336425781, 9.377482414245605, -3.4220168590545654, -0.5311266183853149, 1.7683939933776855, 0.9930510520935059, 0.42241713404655457, 
77, 1768248907, -73.70814514160156, -73.98104095458984, -46.226871490478516, 9.576918601989746, -2.763718366622925, 1.1217577457427979, 2.475167751312256, 0.4850439727306366, -0.6588493585586548, 
78, 1768257240, -73.70520782470703, -73.98577117919922, -46.228065490722656, 9.878148078918457, -1.9610350131988525, 0.6783602833747864, 1.764526128768921, 0.8931298851966858, 0.042429979890584946, 
79, 1768265573, -73.67876434326172, -73.97747802734375, -46.25175857543945, 9.375080108642578, -1.6848809719085693, 1.5793609619140625, 1.7240558862686157, 2.115159511566162, 1.3036749362945557, 
80, 1768273906, -73.70657348632812, -73.97164916992188, -46.23400115966797, 9.214077949523926, -2.424656391143799, 1.295358419418335, 0.22882476449012756, 0.7359610199928284, 1.37729012966156, 
81, 1768282239, -73.7045669555664, -73.96697998046875, -46.238521575927734, 9.304912567138672, -3.3737738132476807, -0.20573580265045166, 1.2454537153244019, 1.4023408889770508, 1.0266057252883911, 
82, 1768290572, -73.71952819824219, -73.97685241699219, -46.21687698364258, 9.390881538391113, -3.068087339401245, 0.9892289042472839, 2.193692922592163, 0.013127296231687069, -0.3413609564304352, 
83, 1768298905, -73.70447540283203, -73.98323822021484, -46.227333068847656, 9.752484321594238, -2.3811283111572266, 0.3477482199668884, 2.121588706970215, 1.2210689783096313, -0.29820093512535095, 
84, 1768307238, -73.68836212158203, -73.9803466796875, -46.24164962768555, 9.618633270263672, -1.6798046827316284, 1.9379500150680542, 1.71516752243042, 1.6029260158538818, 0.7824508547782898, 
85, 1768315571, -73.69459533691406, -73.973388671875, -46.240089416503906, 9.2650728225708, -1.9793826341629028, 0.7885823845863342, 0.8718445897102356, 1.2164841890335083, 1.4075919389724731, 
86, 1768323904, -73.7004165649414, -73.96794128417969, -46.239524841308594, 9.249074935913086, -3.0906004905700684, 0.9409528374671936, 0.8868544697761536, 1.2676867246627808, 1.1685596704483032, 
87, 1768332237, -73.71424102783203, -73.9729995727539, -46.2206916809082, 9.318912506103516, -3.301769733428955, -0.018663320690393448, 2.0356271266937256, 0.33284419775009155, 0.1279815286397934, 
88, 1768340570, -73.69966888427734, -73.98238372802734, -46.22907638549805, 9.755772590637207, -2.623721122741699, 0.7767606973648071, 2.2985832691192627, 0.9704337120056152, -0.5635387897491455, 
89, 1768348903, -73.70782470703125, -73.98413848876953, -46.219295501708984, 9.816490173339844, -1.8304193019866943, 1.2973521947860718, 1.676438808441162, 0.7320164442062378, 0.4214438199996948, 
90, 1768357236, -73.6867446899414, -73.97563171386719, -46.244178771972656, 9.328031539916992, -1.8100080490112305, 1.1049424409866333, 1.3043409585952759, 2.060063362121582, 1.353674054145813, 
91, 1768365569, -73.70294952392578, -73.96983337402344, -46.23799133300781, 9.175544738769531, -2.7709171772003174, 1.4322587251663208, 0.24301503598690033, 1.0282193422317505, 1.3162257671356201, 
92, 1768373902, -73.7039794921875, -73.96852111816406, -46.237545013427734, 9.310858726501465, -3.398390531539917, -0.48625636100769043, 1.454235315322876, 1.1314960718154907, 0.6887795925140381, 
93, 1768382235, -73.7060317993164, -73.97898864746094, -46.227535247802734, 9.551651954650879, -2.887601852416992, 1.1542415618896484, 2.4328787326812744, 0.4321250021457672, -0.5783438086509705, 
94, 1768390568, -73.70757293701172, -73.98469543457031, -46.222129821777344, 9.789470672607422, -2.1074435710906982, 0.6230073571205139, 1.9087858200073242, 0.6713107824325562, -0.015932055190205574, 
95, 1768398901, -73.68534851074219, -73.97705841064453, -46.24440002441406, 9.546477317810059, -1.661514163017273, 1.7155218124389648, 1.6167320013046265, 2.0682339668273926, 1.211207389831543, 
96, 1768407234, -73.7053451538086, -73.97074127197266, -46.23646926879883, 9.240897178649902, -2.310140371322632, 1.1732120513916016, 0.37825822830200195, 0.872382402420044, 1.413713812828064, 
97, 1768415567, -73.69864654541016, -73.9666976928711, -46.24269104003906, 9.268760681152344, -3.3190386295318604, 0.06994517892599106, 1.3264204263687134, 1.442375898361206, 0.9853923916816711, 
98, 1768423900, -73.71272277832031, -73.97543334960938, -46.2222785949707, 9.334312438964844, -3.194145679473877, 0.6633490324020386, 2.186213493347168, 0.1578989326953888, -0.28216639161109924, 
99, 1768432233, -73.6999740600586, -73.9831314086914, -46.230079650878906, 9.819411277770996, -2.4321134090423584, 0.3348771333694458, 2.1511220932006836, 1.0903339385986328, -0.42189210653305054, 
100, 1768440566, -73.6939697265625, -73.98123931884766, -46.2354621887207, 9.64574909210205, -1.6766456365585327, 1.975595474243164, 1.5708314180374146, 1.268813967704773, 0.7570159435272217, 
101, 1768448899, -73.69213104248047, -73.97193908691406, -46.240379333496094, 9.322416305541992, -1.8676437139511108, 0.794763445854187, 1.1752450466156006, 1.5723682641983032, 1.5602014064788818, 
102, 1768457232, -73.69495391845703, -73.9657211303711, -46.24491500854492, 9.20394229888916, -3.003504991531372, 1.2934459447860718, 0.5889864563941956, 1.3812603950500488, 1.2623077630996704, 
103, 1768465565, -73.70072174072266, -73.96863555908203, -46.23445510864258, 9.324390411376953, -3.388620138168335, -0.3858584761619568, 1.9078121185302734, 0.6314805746078491, 0.3446267247200012, 
104, 1768473898, -73.6932373046875, -73.97820281982422, -46.23442840576172, 9.639966011047363, -2.7757272720336914, 1.0687096118927002, 2.4178943634033203, 0.7806834578514099, -0.5622580647468567, 
105, 1768482231, -73.70491027832031, -73.98258209228516, -46.22092819213867, 9.861995697021484, -1.91904616355896, 0.8950724005699158, 1.6793334484100342, 0.5242594480514526, 0.15451788902282715, 
106, 1768490564, -73.67869567871094, -73.97373962402344, -46.25018310546875, 9.307254791259766, -1.6895196437835693, 1.2614426612854004, 1.5422203540802002, 2.1793999671936035, 1.357157588005066, 
107, 1768498897, -73.703857421875, -73.96871185302734, -46.236637115478516, 9.227689743041992, -2.531240940093994, 1.5029767751693726, 0.0657133162021637, 0.8402365446090698, 1.2404075860977173, 
108, 1768507230, -73.70452880859375, -73.96632385253906, -46.237152099609375, 9.300942420959473, -3.4035234451293945, -0.44748926162719727, 1.37787926197052, 1.121608853340149, 0.8641346096992493, 
109, 1768515563, -73.7126235961914, -73.97640991210938, -46.219451904296875, 9.531472206115723, -3.0083749294281006, 1.0447126626968384, 2.4165618419647217, 0.1730881929397583, -0.4156421422958374, 
110, 1768523896, -73.70955657958984, -73.98308563232422, -46.21860885620117, 9.799256324768066, -2.2642581462860107, 0.3534281849861145, 1.986191749572754, 0.8518653512001038, -0.226045623421669, 
111, 1768532229, -73.68720245361328, -73.97731018066406, -46.240413665771484, 9.58737564086914, -1.6863417625427246, 1.9183330535888672, 1.6931138038635254, 1.9888046979904175, 0.9972774386405945, 
112, 1768540562, -73.7032699584961, -73.97171783447266, -46.231693267822266, 9.2382230758667, -2.135132312774658, 1.027014970779419, 0.6234632730484009, 0.913262665271759, 1.3223731517791748, 
113, 1768548895, -73.70140075683594, -73.9670181274414, -46.23836135864258, 9.233214378356934, -3.1596715450286865, 0.5104640126228333, 0.9768372178077698, 1.4721653461456299, 1.0149767398834229, 
114, 1768557228, -73.71410369873047, -73.97421264648438, -46.222068786621094, 9.253680229187012, -3.2204532623291016, 0.3729698657989502, 2.149840831756592, 0.19173534214496613, -0.0626780316233635, 
115, 1768565561, -73.7010498046875, -73.98310089111328, -46.230018615722656, 9.829636573791504, -2.5143258571624756, 0.5932766199111938, 2.1462297439575195, 0.9794243574142456, -0.5096208453178406, 
116, 1768573894, -73.70602416992188, -73.98287200927734, -46.223960876464844, 9.698980331420898, -1.6890292167663574, 1.6906216144561768, 1.6257737874984741, 0.9171048998832703, 0.6168291568756104, 
117, 1768582227, -73.69340515136719, -73.9725341796875, -46.23904800415039, 9.34032154083252, -1.9106190204620361, 0.8466267585754395, 1.2977068424224854, 1.928866982460022, 1.5859181880950928, 
118, 1768590560, -73.70458221435547, -73.9668197631836, -46.234561920166016, 9.15664005279541, -3.004460573196411, 1.3547519445419312, 0.4860941171646118, 1.1220698356628418, 1.2804172039031982, 
119, 1768598893, -73.70973205566406, -73.96953582763672, -46.226951599121094, 9.340188026428223, -3.450566291809082, -0.5788438320159912, 1.7836599349975586, 0.7679531574249268, 0.29204070568084717, 
120, 1768607226, -73.70198822021484, -73.98123931884766, -46.2265510559082, 9.638997077941895, -2.802917718887329, 1.0864512920379639, 2.4763972759246826, 0.6263833045959473, -0.7515985369682312, 
121, 1768615559, -73.70439147949219, -73.98594665527344, -46.22207260131836, 9.821497917175293, -1.9178048372268677, 0.8050122857093811, 1.7720823287963867, 0.7176980376243591, 0.09214720129966736, 
122, 1768623892, -73.67493438720703, -73.97727966308594, -46.253013610839844, 9.365833282470703, -1.6733381748199463, 1.4751465320587158, 1.4889940023422241, 2.376091718673706, 1.2458124160766602, 
123, 1768632225, -73.70056915283203, -73.97198486328125, -46.23711395263672, 9.207991600036621, -2.4533753395080566, 1.4333152770996094, 0.28048866987228394, 0.7744848132133484, 1.2929936647415161, 
124, 1768640558, -73.69629669189453, -73.96907043457031, -46.242820739746094, 9.314811706542969, -3.371699094772339, -0.39241600036621094, 1.2863085269927979, 1.3291867971420288, 0.8678487539291382, 
125, 1768648891, -73.70927429199219, -73.97854614257812, -46.22330856323242, 9.458196640014648, -3.0474910736083984, 1.0029540061950684, 2.2163612842559814, 0.16212528944015503, -0.37281522154808044, 
126, 1768657224, -73.70059204101562, -73.98493194580078, -46.226871490478516, 9.815571784973145, -2.3190908432006836, 0.28068748116493225, 2.0235884189605713, 0.9642093777656555, -0.1800936758518219, 
127, 1768665557, -73.68195343017578, -73.98057556152344, -46.24425506591797, 9.499634742736816, -1.6844440698623657, 1.994965672492981, 1.6378382444381714, 1.7482613325119019, 0.9248403906822205, 
128, 1768673890, -73.69375610351562, -73.972900390625, -46.238433837890625, 9.240558624267578, -2.0562407970428467, 0.9305208325386047, 0.7768925428390503, 1.1746816635131836, 1.4710382223129272, 
129, 1768682223, -73.69060516357422, -73.966796875, -46.24647903442383, 9.245165824890137, -3.1311421394348145, 0.8303545117378235, 0.977785050868988, 1.5607906579971313, 1.1618232727050781, 
130, 1768690556, -73.70630645751953, -73.97367858886719, -46.224609375, 9.369924545288086, -3.2905654907226562, 0.10469554364681244, 1.996591329574585, 0.14942064881324768, -0.007453742437064648, 
131, 1768698889, -73.69137573242188, -73.98201751708984, -46.233028411865234, 9.766610145568848, -2.5933635234832764, 0.6933273673057556, 2.342101812362671, 1.0894118547439575, -0.501859724521637, 
132, 1768707222, -73.69530487060547, -73.9831771850586, -46.228240966796875, 9.779072761535645, -1.7890022993087769, 1.4622102975845337, 1.5823063850402832, 0.8408768773078918, 0.5068929195404053, 
133, 1768715555, -73.67789459228516, -73.97478485107422, -46.24922561645508, 9.304742813110352, -1.809326410293579, 0.9571945071220398, 1.3496781587600708, 1.9211318492889404, 1.3770085573196411, 
134, 1768723888, -73.69364166259766, -73.96966552734375, -46.24288558959961, 9.185201644897461, -2.810817003250122, 1.4304970502853394, 0.3642728328704834, 1.072967290878296, 1.1849783658981323, 
135, 1768732221, -73.69598388671875, -73.96978759765625, -46.23972702026367, 9.290207862854004, -3.397847890853882, -0.4711357057094574, 1.6095600128173828, 0.996534526348114, 0.5506420135498047, 
136, 1768740554, -73.6938247680664, -73.98069763183594, -46.230716705322266, 9.625833511352539, -2.8288211822509766, 1.132969856262207, 2.4310343265533447, 0.48340466618537903, -0.6100030541419983, 
137, 1768748887, -73.69972229003906, -73.98641204833984, -46.221858978271484, 9.816329956054688, -2.043308734893799, 0.6982541680335999, 1.8411896228790283, 0.6269724369049072, -0.04444069787859917, 
138, 1768757220, -73.6706314086914, -73.97795104980469, -46.249820709228516, 9.498944282531738, -1.6824110746383667, 1.6387879848480225, 1.5934231281280518, 2.2500953674316406, 1.2956063747406006, 
139, 1768765553, -73.69386291503906, -73.97331237792969, -46.237327575683594, 9.212425231933594, -2.4530675411224365, 1.2437649965286255, 0.13292507827281952, 0.7913646697998047, 1.242815613746643, 
140, 1768773886, -73.68627166748047, -73.9695053100586, -46.247703552246094, 9.340275764465332, -3.3647964000701904, -0.15124189853668213, 1.236463189125061, 1.5573070049285889, 0.8796567916870117, 
141, 1768782219, -73.70024871826172, -73.97877502441406, -46.22768783569336, 9.35846996307373, -3.1661486625671387, 0.7765562534332275, 2.1493546962738037, 0.1530066430568695, -0.34589463472366333, 
142, 1768790552, -73.68356323242188, -73.98648071289062, -46.23899841308594, 9.835192680358887, -2.319305419921875, 0.3688315153121948, 2.1874427795410156, 1.1371567249298096, -0.399991899728775, 
143, 1768798885, -73.6735610961914, -73.9830551147461, -46.24695587158203, 9.566097259521484, -1.6011861562728882, 1.9198296070098877, 1.8041003942489624, 1.4680416584014893, 0.8565528988838196, 
144, 1768807218, -73.67459869384766, -73.97496032714844, -46.25215148925781, 9.325675010681152, -1.9398460388183594, 0.8653228282928467, 1.006729006767273, 1.394041895866394, 1.4942703247070312, 
145, 1768815551, -73.6739501953125, -73.96916961669922, -46.25846862792969, 9.198531150817871, -3.097705841064453, 1.049241065979004, 0.7428512573242188, 1.4672731161117554, 1.189896583557129, 
146, 1768823884, -73.6865005493164, -73.97283935546875, -46.242244720458984, 9.341842651367188, -3.3265719413757324, -0.1590421199798584, 1.8864754438400269, 0.46373292803764343, 0.26125240325927734, 
147, 1768832217, -73.6753921508789, -73.98138427734375, -46.24632263183594, 9.686838150024414, -2.6799569129943848, 0.8671169281005859, 2.381906032562256, 0.9438205361366272, -0.48372483253479004, 
148, 1768840550, -73.68399047851562, -73.98319244384766, -46.23622131347656, 9.795454025268555, -1.8769099712371826, 1.269730567932129, 1.6567161083221436, 0.6421105265617371, 0.47738534212112427, 
149, 1768848883, -73.66461181640625, -73.97355651855469, -46.25648498535156, 9.311084747314453, -1.7551273107528687, 1.044295072555542, 1.512277364730835, 2.0706677436828613, 1.454850196838379, 
150, 1768857216, -73.68511962890625, -73.96807861328125, -46.251434326171875, 9.192654609680176, -2.7121076583862305, 1.4925551414489746, 0.20356911420822144, 0.8667728900909424, 1.3264715671539307, 
151, 1768865549, -73.68035888671875, -73.96712493896484, -46.25420379638672, 9.336969375610352, -3.3801584243774414, -0.6099953651428223, 1.5902469158172607, 1.2001934051513672, 0.6573253273963928, 
152, 1768873882, -73.68501281738281, -73.978271484375, -46.24215316772461, 9.554424285888672, -2.923863410949707, 1.1339174509048462, 2.355907678604126, 0.34183478355407715, -0.636436939239502, 
153, 1768882215, -73.68509674072266, -73.98336791992188, -46.23857116699219, 9.835041046142578, -2.11924147605896, 0.469932496547699, 1.9237953424453735, 0.8150321245193481, -0.019185058772563934, 
154, 1768890548, -73.65347290039062, -73.97673797607422, -46.27123260498047, 9.495468139648438, -1.7292451858520508, 1.7922450304031372, 1.5583829879760742, 2.2858529090881348, 1.0540642738342285, 
155, 1768898881, -73.68055725097656, -73.97005462646484, -46.2529411315918, 9.260730743408203, -2.280541181564331, 1.195582389831543, 0.38304805755615234, 0.7444905042648315, 1.4741119146347046, 
156, 1768907214, -73.67330932617188, -73.96575927734375, -46.263851165771484, 9.250550270080566, -3.2681071758270264, 0.2186511904001236, 1.121609091758728, 1.5192444324493408, 0.9888503551483154, 
157, 1768915547, -73.69023895263672, -73.9744873046875, -46.239990234375, 9.359829902648926, -3.1348860263824463, 0.6934286952018738, 2.2289891242980957, -0.02356509305536747, -0.18631793558597565, 
158, 1768923880, -73.67807006835938, -73.98188781738281, -46.24646759033203, 9.74061393737793, -2.42498779296875, 0.4411235749721527, 2.244178533554077, 1.0543971061706543, -0.3806018829345703, 
159, 1768932213, -73.67427825927734, -73.9803466796875, -46.24934005737305, 9.72796630859375, -1.6702585220336914, 1.7365494966506958, 1.651336908340454, 1.2432509660720825, 0.6838103532791138, 
160, 1768940546, -73.66830444335938, -73.97313690185547, -46.2539176940918, 9.358494758605957, -1.9681345224380493, 0.8428191542625427, 0.9900030493736267, 1.6004928350448608, 1.326420545578003, 
161, 1768948879, -73.67237854003906, -73.9675521850586, -46.257266998291016, 9.206522941589355, -3.0334694385528564, 1.2071324586868286, 0.6515620350837708, 1.3950408697128296, 1.1452507972717285, 
162, 1768957212, -73.67530822753906, -73.97174072265625, -46.24959945678711, 9.305166244506836, -3.3859124183654785, -0.32273194193840027, 1.9825546741485596, 0.6637032628059387, 0.18691988289356232, 
163, 1768965545, -73.66272735595703, -73.98125457763672, -46.25408935546875, 9.703400611877441, -2.702712059020996, 0.916370153427124, 2.4691741466522217, 0.8610866069793701, -0.5442768931388855, 
164, 1768973878, -73.67374420166016, -73.98523712158203, -46.24034881591797, 9.794610977172852, -1.8805269002914429, 1.1346207857131958, 1.7876302003860474, 0.5284856557846069, 0.2021859586238861, 
165, 1768982211, -73.65033721923828, -73.97610473632812, -46.26470947265625, 9.397377014160156, -1.7734843492507935, 1.2167046070098877, 1.5219593048095703, 2.18357515335083, 1.359974980354309, 
166, 1768990544, -73.67291259765625, -73.97198486328125, -46.253849029541016, 9.205194473266602, -2.57080340385437, 1.5466806888580322, 0.10751575976610184, 0.8010980486869812, 1.1757317781448364, 
167, 1768998877, -73.66764831542969, -73.96819305419922, -46.260494232177734, 9.330242156982422, -3.368762493133545, -0.5544535517692566, 1.393068552017212, 1.43953275680542, 0.9055015444755554, 
168, 1769007210, -73.67771911621094, -73.97863006591797, -46.24216079711914, 9.422175407409668, -3.0374717712402344, 1.15785551071167, 2.243640422821045, 0.14824236929416656, -0.45127156376838684, 
169, 1769015543, -73.67391967773438, -73.98521423339844, -46.24144744873047, 9.820701599121094, -2.2843170166015625, 0.264308899641037, 2.02048921585083, 0.7860112190246582, -0.1562212109565735, 
170, 1769023876, -73.65271759033203, -73.97954559326172, -46.261226654052734, 9.492085456848145, -1.679854393005371, 1.9293303489685059, 1.786682367324829, 1.9209779500961304, 1.0050641298294067, 
171, 1769032209, -73.67308807373047, -73.97359466552734, -46.2471809387207, 9.293869018554688, -2.0907931327819824, 0.9804126620292664, 0.699998676776886, 0.8541450500488281, 1.3495500087738037, 
172, 1769040542, -73.66756439208984, -73.96869659423828, -46.25407028198242, 9.203771591186523, -3.181439161300659, 0.5445783138275146, 0.9917447566986084, 1.5082300901412964, 1.0622607469558716, 
173, 1769048875, -73.68628692626953, -73.97480773925781, -46.23091125488281, 9.355231285095215, -3.2531917095184326, 0.2771497666835785, 1.9432110786437988, 0.16028106212615967, 0.04988371953368187, 
174, 1769057208, -73.67198181152344, -73.98371124267578, -46.23974609375, 9.750055313110352, -2.5709495544433594, 0.5512913465499878, 2.2453057765960693, 0.9981227517127991, -0.5110552310943604, 
175, 1769065541, -73.67325592041016, -73.98448944091797, -46.23612976074219, 9.791206359863281, -1.748691439628601, 1.7111501693725586, 1.7237483263015747, 0.8983553647994995, 0.5329681634902954, 
176, 1769073874, -73.66011810302734, -73.9754638671875, -46.25114822387695, 9.326725006103516, -1.8532514572143555, 0.8335651159286499, 1.3618191480636597, 1.8855533599853516, 1.4362285137176514, 
177, 1769082207, -73.67044830322266, -73.97024536132812, -46.249542236328125, 9.183183670043945, -2.8711464405059814, 1.429566740989685, 0.4681129455566406, 1.2251160144805908, 1.1513469219207764, 
178, 1769090540, -73.67318725585938, -73.97061157226562, -46.24488067626953, 9.276107788085938, -3.4265990257263184, -0.5144161581993103, 1.651926040649414, 0.8830379247665405, 0.5823267698287964, 
179, 1769098873, -73.6671142578125, -73.97999572753906, -46.24333572387695, 9.646236419677734, -2.806506633758545, 1.1138495206832886, 2.433826208114624, 0.7351669669151306, -0.5322125554084778, 
180, 1769107206, -73.67330169677734, -73.9852066040039, -46.23470687866211, 9.81690502166748, -1.9784743785858154, 0.7189552187919617, 1.8198273181915283, 0.557327389717102, 0.08574365079402924, 
181, 1769115539, -73.64318084716797, -73.97622680664062, -46.26313781738281, 9.457874298095703, -1.7233484983444214, 1.4353361129760742, 1.5721375942230225, 2.297840118408203, 1.3384077548980713, 
182, 1769123872, -73.6700668334961, -73.97024536132812, -46.246742248535156, 9.215729713439941, -2.462416172027588, 1.4612613916397095, 0.19053149223327637, 0.7805553674697876, 1.3762143850326538, 
183, 1769132205, -73.66388702392578, -73.96624755859375, -46.25445556640625, 9.346176147460938, -3.3945295810699463, -0.3134582042694092, 1.366071105003357, 1.4851516485214233, 0.9275042414665222, 
184, 1769140538, -73.67599487304688, -73.9755630493164, -46.23503494262695, 9.378471374511719, -3.1191906929016113, 0.9611517786979675, 2.2740960121154785, 0.10059991478919983, -0.29576757550239563, 
185, 1769148871, -73.66625213623047, -73.9836654663086, -46.24070358276367, 9.809183120727539, -2.3526175022125244, 0.278335839509964, 2.045872926712036, 1.005730152130127, -0.4543452560901642, 
186, 1769157204, -73.64581298828125, -73.98057556152344, -46.260528564453125, 9.60512638092041, -1.5964723825454712, 1.9877376556396484, 1.7294092178344727, 1.7468523979187012, 0.7690289616584778, 
187, 1769165537, -73.65291595458984, -73.97325897216797, -46.25776672363281, 9.300251960754395, -1.9062749147415161, 0.9132032990455627, 0.9069616198539734, 1.2040610313415527, 1.4618427753448486, 
188, 1769173870, -73.64988708496094, -73.96698760986328, -46.266971588134766, 9.203804016113281, -3.0632948875427246, 0.9584978818893433, 0.8244837522506714, 1.6056668758392334, 1.169353723526001, 
189, 1769182203, -73.66819763183594, -73.97108459472656, -46.244667053222656, 9.361894607543945, -3.3187849521636963, -0.08009441941976547, 1.9012805223464966, 0.2524923086166382, 0.2718566656112671, 
190, 1769190536, -73.65289306640625, -73.97984313964844, -46.25339126586914, 9.690288543701172, -2.7269177436828613, 0.7021408677101135, 2.30770206451416, 1.0268619060516357, -0.4948670566082001, 
191, 1769198869, -73.66986083984375, -73.98284149169922, -46.23508834838867, 9.813504219055176, -1.9287441968917847, 1.3787602186203003, 1.598443627357483, 0.41739675402641296, 0.3575875163078308, 
192, 1769207202, -73.64274597167969, -73.97354125976562, -46.26239776611328, 9.32114028930664, -1.7851238250732422, 0.939294159412384, 1.5563081502914429, 2.225403308868408, 1.401854157447815, 
193, 1769215535, -73.66050720214844, -73.96772003173828, -46.25420379638672, 9.189504623413086, -2.6329684257507324, 1.683685302734375, 0.3110976815223694, 0.9669501185417175, 1.3388944864273071, 
194, 1769223868, -73.66260528564453, -73.96527099609375, -46.252811431884766, 9.336630821228027, -3.3476388454437256, -0.6625280380249023, 1.4363566637039185, 1.138027548789978, 0.8295553922653198, 
195, 1769232201, -73.66606903076172, -73.97413635253906, -46.24156951904297, 9.54818344116211, -2.9378044605255127, 1.2210230827331543, 2.4065470695495605, 0.4433952271938324, -0.3827022910118103, 
196, 1769240534, -73.66866302490234, -73.9795150756836, -46.23418426513672, 9.809479713439941, -2.1992785930633545, 0.4068509638309479, 1.8709278106689453, 0.6657523512840271, 0.036538705229759216, 
197, 1769248867, -73.64459991455078, -73.97344970703125, -46.25844192504883, 9.532255172729492, -1.6867426633834839, 1.740671992301941, 1.6098674535751343, 2.0752270221710205, 1.0081379413604736, 
198, 1769257200, -73.66942596435547, -73.96836853027344, -46.241947174072266, 9.235236167907715, -2.219498634338379, 1.2053041458129883, 0.44226816296577454, 0.6668025851249695, 1.330236792564392, 
199, 1769265533, -73.6598129272461, -73.96414947509766, -46.25210952758789, 9.228975296020508, -3.299971103668213, 0.15129630267620087, 1.1136173009872437, 1.6036689281463623, 0.9568837881088257, 
200, 1769273866, -73.67657470703125, -73.97172546386719, -46.22952651977539, 9.381525993347168, -3.2329766750335693, 0.6448786854743958, 2.1184380054473877, 0.12741801142692566, -0.12481816112995148, 
201, 1769282199, -73.65934753417969, -73.9788818359375, -46.2423210144043, 9.77856731414795, -2.404752254486084, 0.4254617393016815, 2.083730697631836, 1.1987332105636597, -0.3482511341571808, 
202, 1769290532, -73.65553283691406, -73.976318359375, -46.243717193603516, 9.748157501220703, -1.663456678390503, 1.888332724571228, 1.8232853412628174, 1.2301876544952393, 0.814212441444397, 
203, 1769298865, -73.64981842041016, -73.96612548828125, -46.253292083740234, 9.276435852050781, -1.9305189847946167, 0.8248478770256042, 1.0996320247650146, 1.750259280204773, 1.6202412843704224, 
204, 1769307198, -73.65678405761719, -73.96165466308594, -46.25149917602539, 9.158020973205566, -3.052849531173706, 1.2396941184997559, 0.7249212861061096, 1.159722924232483, 1.110748529434204, 
205, 1769315531, -73.67042541503906, -73.96558380126953, -46.23521423339844, 9.371277809143066, -3.4150309562683105, -0.4054732322692871, 1.7643468379974365, 0.4494401812553406, 0.23666271567344666, 
206, 1769323864, -73.65705108642578, -73.9765625, -46.23876190185547, 9.73165512084961, -2.7276995182037354, 0.8215692043304443, 2.5356943607330322, 0.8215382099151611, -0.718479335308075, 
207, 1769332197, -73.66324615478516, -73.98088073730469, -46.231143951416016, 9.812095642089844, -1.8534071445465088, 1.157655954360962, 1.6326899528503418, 0.6380378603935242, 0.1691179871559143, 
208, 1769340530, -73.63873291015625, -73.97028350830078, -46.255855560302734, 9.299880027770996, -1.6941261291503906, 1.2375003099441528, 1.6204204559326172, 2.2443830966949463, 1.5224460363388062, 
209, 1769348863, -73.66683197021484, -73.96508026123047, -46.24031448364258, 9.135682106018066, -2.5888071060180664, 1.5908852815628052, -0.05458392947912216, 0.7812982201576233, 1.2772666215896606, 
210, 1769357196, -73.66287994384766, -73.96217346191406, -46.24494171142578, 9.406845092773438, -3.42148494720459, -0.597770631313324, 1.4367921352386475, 1.2759346961975098, 0.8921822905540466, 
211, 1769365529, -73.6737289428711, -73.97218322753906, -46.22738265991211, 9.492910385131836, -3.010091543197632, 1.1940488815307617, 2.243640422821045, 0.20513157546520233, -0.4515533149242401, 
212, 1769373862, -73.66696166992188, -73.97918701171875, -46.22945785522461, 9.855474472045898, -2.282743453979492, 0.2921289801597595, 2.0457956790924072, 0.8711785078048706, -0.23203934729099274, 
213, 1769382195, -73.6387939453125, -73.973876953125, -46.25768280029297, 9.438780784606934, -1.6771575212478638, 2.0063419342041016, 1.7773078680038452, 2.0602939128875732, 0.9489945769309998, 
214, 1769390528, -73.66376495361328, -73.96753692626953, -46.2391357421875, 9.251707077026367, -2.089425802230835, 1.078004240989685, 0.6680576801300049, 0.7252286076545715, 1.4370737075805664, 
215, 1769398861, -73.66481018066406, -73.96295928955078, -46.24319076538086, 9.250907897949219, -3.183809518814087, 0.43648841977119446, 0.9237133264541626, 1.3855379819869995, 1.0255554914474487, 
216, 1769407194, -73.68217468261719, -73.97022247314453, -46.218257904052734, 9.39470100402832, -3.247363328933716, 0.4335152506828308, 1.9655468463897705, 0.0859229639172554, -0.030532170087099075, 
217, 1769415527, -73.66647338867188, -73.97752380371094, -46.22853088378906, 9.79679012298584, -2.583958148956299, 0.41434556245803833, 2.2255313396453857, 1.1795227527618408, -0.4017336964607239, 
218, 1769423860, -73.66543579101562, -73.97775268554688, -46.2286491394043, 9.750761032104492, -1.7607483863830566, 1.7140108346939087, 1.5681418180465698, 1.0363646745681763, 0.5624501705169678, 
219, 1769432193, -73.6570816040039, -73.9698257446289, -46.23921203613281, 9.299118041992188, -1.8501174449920654, 0.8068644404411316, 1.1800862550735474, 1.6494669914245605, 1.3998051881790161, 
220, 1769440526, -73.66145324707031, -73.96434783935547, -46.24291229248047, 9.14567756652832, -2.914646625518799, 1.4235363006591797, 0.57233726978302, 1.4031349420547485, 1.1344672441482544, 
221, 1769448859, -73.66764831542969, -73.96595001220703, -46.23395538330078, 9.349032402038574, -3.4269044399261475, -0.4106258749961853, 1.8114771842956543, 0.7622667551040649, 0.4331238865852356, 
222, 1769457192, -73.65544128417969, -73.97554779052734, -46.23875045776367, 9.59114933013916, -2.765357732772827, 1.0625097751617432, 2.3716859817504883, 0.8729971051216125, -0.5590050220489502, 
223, 1769465525, -73.66732788085938, -73.97941589355469, -46.22474670410156, 9.83750057220459, -1.9510239362716675, 0.9776149392127991, 1.710556983947754, 0.5263596773147583, 0.2220626026391983, 
224, 1769473858, -73.63951873779297, -73.97132873535156, -46.25370788574219, 9.413464546203613, -1.7303330898284912, 1.2723129987716675, 1.5211398601531982, 2.2165918350219727, 1.2524209022521973, 
225, 1769482191, -73.66098022460938, -73.96614837646484, -46.24063491821289, 9.168892860412598, -2.538071870803833, 1.3782312870025635, 0.22067943215370178, 0.8453850150108337, 1.2967077493667603, 
226, 1769490524, -73.65556335449219, -73.96337890625, -46.2474479675293, 9.307161331176758, -3.4191977977752686, -0.42259809374809265, 1.3840011358261108, 1.4113059043884277, 0.7907242178916931, 
227, 1769498857, -73.66584777832031, -73.97248077392578, -46.22909164428711, 9.475178718566895, -3.073556900024414, 0.9797627329826355, 2.4085452556610107, 0.2101520150899887, -0.34143778681755066, 
228, 1769507190, -73.65613555908203, -73.97930908203125, -46.233741760253906, 9.796575546264648, -2.251098155975342, 0.3650927245616913, 2.1648001670837402, 0.9431033730506897, -0.23257727921009064, 
229, 1769515523, -73.6384048461914, -73.97418212890625, -46.25037384033203, 9.570725440979004, -1.6324357986450195, 1.9974650144577026, 1.739808440208435, 1.7992846965789795, 0.9661815762519836, 
230, 1769523856, -73.65132141113281, -73.96731567382812, -46.24158477783203, 9.212030410766602, -2.0345945358276367, 1.0498100519180298, 0.7810164093971252, 1.0282193422317505, 1.4490355253219604, 
231, 1769532189, -73.643798828125, -73.96199798583984, -46.256351470947266, 9.232349395751953, -3.150843858718872, 0.7234393358230591, 0.9830870628356934, 1.6100722551345825, 1.097044825553894, 
232, 1769540522, -73.66376495361328, -73.96743774414062, -46.23208236694336, 9.350566864013672, -3.282717704772949, 0.19297859072685242, 1.9241539239883423, 0.1435805857181549, 0.13653667271137238, 
233, 1769548855, -73.65028381347656, -73.97588348388672, -46.239349365234375, 9.797632217407227, -2.6277387142181396, 0.5328426957130432, 2.298532009124756, 1.048454761505127, -0.5021927356719971, 
234, 1769557188, -73.65564727783203, -73.97713470458984, -46.232322692871094, 9.713218688964844, -1.7825074195861816, 1.5250093936920166, 1.666935920715332, 0.7643159627914429, 0.5135781764984131, 
235, 1769565521, -73.63550567626953, -73.96785736083984, -46.253849029541016, 9.3132963180542, -1.7751901149749756, 0.8913281559944153, 1.4584873914718628, 2.0963072776794434, 1.4001892805099487, 
236, 1769573854, -73.65081024169922, -73.96271514892578, -46.24883270263672, 9.127456665039062, -2.823420286178589, 1.5401287078857422, 0.3321782052516937, 1.011621356010437, 1.242072582244873, 
237, 1769582187, -73.65711975097656, -73.96292114257812, -46.24437713623047, 9.409269332885742, -3.4281864166259766, -0.5146369934082031, 1.6780784130096436, 0.7661601901054382, 0.6462343335151672, 
238, 1769590520, -73.65489959716797, -73.97264099121094, -46.2392578125, 9.643983840942383, -2.8788726329803467, 1.107101559638977, 2.3756308555603027, 0.6110404133796692, -0.5325199961662292, 
239, 1769598853, -73.66364288330078, -73.97737121582031, -46.226844787597656, 9.858031272888184, -2.0410220623016357, 0.9275150895118713, 1.913139820098877, 0.5436749458312988, 0.10390414297580719, 
240, 1769607186, -73.63812255859375, -73.96942138671875, -46.25185775756836, 9.44864559173584, -1.702816128730774, 1.3347145318984985, 1.675644874572754, 2.0950522422790527, 1.2751151323318481, 
241, 1769615519, -73.66675567626953, -73.96371459960938, -46.234046936035156, 9.206073760986328, -2.4485111236572266, 1.3837746381759644, 0.13763809204101562, 0.7260738611221313, 1.3595906496047974, 
242, 1769623852, -73.6573257446289, -73.96052551269531, -46.24549865722656, 9.317769050598145, -3.3666272163391113, -0.2860471308231354, 1.3361024856567383, 1.4930920600891113, 0.8548622727394104, 
243, 1769632185, -73.66761779785156, -73.96949005126953, -46.22772216796875, 9.396939277648926, -3.0273962020874023, 1.005834698677063, 2.3081881999969482, 0.1662748008966446, -0.26951298117637634, 
244, 1769640518, -73.66155242919922, -73.97584533691406, -46.22935104370117, 9.815315246582031, -2.2394542694091797, 0.3459795415401459, 2.0659029483795166, 0.936238706111908, -0.2142886519432068, 
245, 1769648851, -73.64120483398438, -73.97120666503906, -46.24869155883789, 9.588027000427246, -1.6801918745040894, 2.0166776180267334, 1.7339942455291748, 1.871209740638733, 0.8892109990119934, 
246, 1769657184, -73.6539306640625, -73.96453094482422, -46.242225646972656, 9.24165153503418, -2.0922741889953613, 0.9613852500915527, 0.7011255621910095, 1.0505549907684326, 1.4220126867294312, 
247, 1769665517, -73.65057373046875, -73.95846557617188, -46.250694274902344, 9.24364185333252, -3.221297025680542, 0.7521915435791016, 0.9517865777015686, 1.5743403434753418, 1.156341791152954, 
248, 1769673850, -73.66727447509766, -73.96379852294922, -46.2291374206543, 9.345985412597656, -3.3155763149261475, 0.11832282692193985, 1.858274221420288, 0.20338980853557587, 0.17249904572963715, 
249, 1769682183, -73.65251159667969, -73.97373962402344, -46.23833465576172, 9.733677864074707, -2.5766444206237793, 0.5870013236999512, 2.240438938140869, 0.9816784262657166, -0.6372309327125549, 
250, 1769690516, -73.65805053710938, -73.97616577148438, -46.23015594482422, 9.751612663269043, -1.8033547401428223, 1.3827003240585327, 1.7956217527389526, 0.7580659985542297, 0.33281853795051575, 
251, 1769698849, -73.63935089111328, -73.96745300292969, -46.25048828125, 9.335895538330078, -1.7715078592300415, 0.978080153465271, 1.4317971467971802, 2.038342237472534, 1.3475775718688965, 
252, 1769707182, -73.65738677978516, -73.96214294433594, -46.2344856262207, 9.176281929016113, -2.7916972637176514, 1.5833675861358643, 0.33776211738586426, 0.9254295825958252, 1.2905604839324951, 
253, 1769715515, -73.66173553466797, -73.96182250976562, -46.22936248779297, 9.340166091918945, -3.3604061603546143, -0.6226444244384766, 1.5986227989196777, 0.9474833011627197, 0.6177000403404236, 
254, 1769723848, -73.65776062011719, -73.97138977050781, -46.22538375854492, 9.594137191772461, -2.8625197410583496, 1.1619986295700073, 2.4109013080596924, 0.5888328552246094, -0.4706103503704071, 
255, 1769732181, -73.6631851196289, -73.97732543945312, -46.21650695800781, 9.76376724243164, -2.1159474849700928, 0.6607232093811035, 1.952867865562439, 0.528767466545105, 0.0011398333590477705, 
256, 1769740514, -73.63762664794922, -73.96936798095703, -46.24186706542969, 9.482576370239258, -1.7642419338226318, 1.6025784015655518, 1.664400339126587, 2.1750967502593994, 1.215126395225525, 
257, 1769748847, -73.66849517822266, -73.96454620361328, -46.22098159790039, 9.228342056274414, -2.369415283203125, 1.2821542024612427, 0.23361459374427795, 0.5964146256446838, 1.2835419178009033, 
258, 1769757180, -73.66006469726562, -73.96028900146484, -46.23122024536133, 9.358057022094727, -3.3208487033843994, -0.05859197676181793, 1.230392575263977, 1.5245976448059082, 0.9862633347511292, 
259, 1769765513, -73.677734375, -73.96930694580078, -46.20745849609375, 9.363532066345215, -3.1519086360931396, 0.7496885657310486, 2.1491498947143555, 0.03743520751595497, -0.28260189294815063, 
260, 1769773846, -73.67247772216797, -73.97727966308594, -46.20918273925781, 9.8274564743042, -2.3524699211120605, 0.3561573028564453, 2.0090396404266357, 0.7968972325325012, -0.33511099219322205, 
261, 1769782179, -73.65640258789062, -73.97445678710938, -46.223758697509766, 9.713982582092285, -1.677795171737671, 1.845069169998169, 1.7120426893234253, 1.5989046096801758, 0.7783269882202148, 
262, 1769790512, -73.66621398925781, -73.96614074707031, -46.21812438964844, 9.32606029510498, -2.0062928199768066, 0.9310846328735352, 0.9848032593727112, 1.2042148113250732, 1.5504168272018433, 
263, 1769798845, -73.66427612304688, -73.96121215820312, -46.22642135620117, 9.197179794311523, -3.1005828380584717, 0.8031433820724487, 0.8056318163871765, 1.5287472009658813, 1.024326205253601, 
264, 1769807178, -73.67989349365234, -73.9669189453125, -46.20618438720703, 9.292210578918457, -3.2819061279296875, 0.16870224475860596, 1.9669811725616455, 0.19176097214221954, 0.12657272815704346, 
265, 1769815511, -73.67060852050781, -73.9762191772461, -46.208866119384766, 9.724032402038574, -2.5934500694274902, 0.6154292821884155, 2.319612503051758, 0.8741498589515686, -0.5586465001106262, 
266, 1769823844, -73.67864227294922, -73.97842407226562, -46.19907760620117, 9.82221508026123, -1.8491318225860596, 1.5310198068618774, 1.6237246990203857, 0.6551224589347839, 0.42595189809799194, 
267, 1769832177, -73.65447998046875, -73.96943664550781, -46.224151611328125, 9.457711219787598, -1.8326098918914795, 0.9096102118492126, 1.327521800994873, 2.1713061332702637, 1.3872030973434448, 
268, 1769840510, -73.66809844970703, -73.9634780883789, -46.22041702270508, 9.19886302947998, -2.7731635570526123, 1.5492663383483887, 0.32690170407295227, 1.178908109664917, 1.253394365310669, 
269, 1769848843, -73.66874694824219, -73.96285247802734, -46.21897888183594, 9.309364318847656, -3.4008002281188965, -0.7238208055496216, 1.6098930835723877, 1.0776804685592651, 0.6228485703468323, 
270, 1769857176, -73.66629028320312, -73.97272491455078, -46.21159744262695, 9.498396873474121, -2.846604824066162, 1.179513931274414, 2.4256041049957275, 0.5255657434463501, -0.49589160084724426, 
271, 1769865509, -73.67045593261719, -73.9781494140625, -46.203147888183594, 9.856895446777344, -2.0955352783203125, 0.40381112694740295, 1.9950798749923706, 0.648309051990509, -0.008939368650317192, 
272, 1769873842, -73.6458511352539, -73.97010803222656, -46.22808074951172, 9.452564239501953, -1.7102406024932861, 1.7666997909545898, 1.6006208658218384, 2.087163209915161, 1.293480634689331, 
273, 1769882175, -73.67052459716797, -73.96455383300781, -46.21288299560547, 9.227962493896484, -2.290869951248169, 1.2336221933364868, 0.29339829087257385, 0.7301208972930908, 1.3765474557876587, 
274, 1769890508, -73.66036224365234, -73.9595947265625, -46.22733688354492, 9.27880859375, -3.284680128097534, 0.11899026483297348, 1.0753240585327148, 1.7269246578216553, 0.9724572896957397, 
275, 1769898841, -73.68071746826172, -73.96741485595703, -46.20105743408203, 9.336304664611816, -3.149116277694702, 0.7299842238426208, 2.111419916152954, -0.00035859926720149815, -0.12066865712404251, 
276, 1769907174, -73.66674041748047, -73.97444915771484, -46.2091178894043, 9.7363920211792, -2.4058077335357666, 0.37643110752105713, 2.142259120941162, 1.0837254524230957, -0.29630544781684875, 
277, 1769915507, -73.65740966796875, -73.9709243774414, -46.21611785888672, 9.686016082763672, -1.6906404495239258, 1.8246488571166992, 1.8380645513534546, 1.4417099952697754, 0.8746364116668701, 
278, 1769923840, -73.65290832519531, -73.9622802734375, -46.225502014160156, 9.250597953796387, -1.8900833129882812, 0.8530623912811279, 1.175552487373352, 1.5568716526031494, 1.5165804624557495, 
279, 1769932173, -73.6514663696289, -73.95779418945312, -46.233333587646484, 9.230435371398926, -3.0427863597869873, 1.145153284072876, 0.8188998103141785, 1.4163005352020264, 1.0451503992080688, 
280, 1769940506, -73.66577911376953, -73.96250915527344, -46.21596145629883, 9.289069175720215, -3.3872032165527344, -0.14861589670181274, 1.8097864389419556, 0.38934916257858276, 0.15523506700992584, 
281, 1769948839, -73.65470886230469, -73.97138214111328, -46.22043991088867, 9.726472854614258, -2.6826629638671875, 0.7469279170036316, 2.3312668800354004, 0.9433850049972534, -0.5259627103805542, 
282, 1769957172, -73.6602783203125, -73.97476196289062, -46.21426773071289, 9.801111221313477, -1.898938775062561, 1.3034164905548096, 1.7199573516845703, 0.6690053343772888, 0.2798483371734619, 
283, 1769965505, -73.63719177246094, -73.96552276611328, -46.237674713134766, 9.44030475616455, -1.818346381187439, 1.0331265926361084, 1.5981361865997314, 2.1560909748077393, 1.3786221742630005, 
284, 1769973838, -73.65164184570312, -73.95965576171875, -46.23346710205078, 9.161930084228516, -2.6554925441741943, 1.5656524896621704, 0.1657625287771225, 1.1127464771270752, 1.2991156578063965, 
285, 1769982171, -73.64662170410156, -73.95845031738281, -46.239261627197266, 9.304939270019531, -3.3738205432891846, -0.47512543201446533, 1.4909919500350952, 1.249756932258606, 0.6858851909637451, 
286, 1769990504, -73.6512451171875, -73.96708679199219, -46.22637939453125, 9.487114906311035, -2.944068670272827, 1.1850429773330688, 2.450270652770996, 0.3990057706832886, -0.3384152948856354, 
287, 1769998837, -73.65097045898438, -73.97406768798828, -46.22284698486328, 9.811511039733887, -2.1744606494903564, 0.48127710819244385, 1.958297848701477, 0.752943217754364, -0.2323979288339615, 
288, 1770007170, -73.6255874633789, -73.96753692626953, -46.250396728515625, 9.546904563903809, -1.678337812423706, 1.7710129022598267, 1.6781294345855713, 2.036113977432251, 1.109083652496338, 
289, 1770015503, -73.64899444580078, -73.96151733398438, -46.23585510253906, 9.25765323638916, -2.205528974533081, 1.2086588144302368, 0.39196184277534485, 0.840620756149292, 1.3650208711624146, 
290, 1770023836, -73.63750457763672, -73.95668029785156, -46.24824142456055, 9.276054382324219, -3.3057193756103516, 0.14844870567321777, 1.2239891290664673, 1.6435757875442505, 1.0216366052627563, 
291, 1770032169, -73.65267944335938, -73.96482849121094, -46.22750473022461, 9.322806358337402, -3.2355287075042725, 0.5517518520355225, 2.0829367637634277, 0.0902005285024643, -0.15030433237552643, 
292, 1770040502, -73.63317108154297, -73.97305297851562, -46.24091339111328, 9.763795852661133, -2.44199800491333, 0.4301247298717499, 2.320765256881714, 1.2474517822265625, -0.5385905504226685, 
293, 1770048835, -73.62686157226562, -73.97090911865234, -46.24689865112305, 9.699502944946289, -1.6605340242385864, 1.9170377254486084, 1.5945758819580078, 1.3617167472839355, 0.7244090437889099, 
294, 1770057168, -73.62103271484375, -73.96221923828125, -46.256839752197266, 9.332823753356934, -1.8685623407363892, 0.7966139316558838, 1.0649245977401733, 1.6379406452178955, 1.5113294124603271, 
295, 1770065501, -73.62764739990234, -73.95672607421875, -46.257415771484375, 9.177563667297363, -3.003166437149048, 1.3797107934951782, 0.6579400897026062, 1.3062106370925903, 1.1649225950241089, 
296, 1770073834, -73.63473510742188, -73.95965576171875, -46.24666976928711, 9.31162166595459, -3.4078259468078613, -0.42279061675071716, 1.956018090248108, 0.5775882005691528, 0.35763871669769287, 
297, 1770082167, -73.62483978271484, -73.96989440917969, -46.249568939208984, 9.614912986755371, -2.7014365196228027, 1.0252619981765747, 2.3565993309020996, 0.7754325866699219, -0.6121034026145935, 
298, 1770090500, -73.63886260986328, -73.97372436523438, -46.233612060546875, 9.829341888427734, -1.906100869178772, 0.9891608357429504, 1.6749275922775269, 0.4643988609313965, 0.24836844205856323, 
299, 1770098833, -73.615478515625, -73.96415710449219, -46.25657272338867, 9.341083526611328, -1.7204430103302002, 1.1705485582351685, 1.6799992322921753, 2.153811454772949, 1.4221919775009155, 
300, 1770107166, -73.63805389404297, -73.95855712890625, -46.25096893310547, 9.21435546875, -2.5842502117156982, 1.494908332824707, 0.09096894413232803, 0.8521215319633484, 1.3404312133789062, 
301, 1770115499, -73.63612365722656, -73.95683288574219, -46.25400924682617, 9.340954780578613, -3.4281816482543945, -0.4068172872066498, 1.4056452512741089, 1.254931092262268, 0.7058387398719788, 
302, 1770123832, -73.6430435180664, -73.96715545654297, -46.238182067871094, 9.550253868103027, -2.9638707637786865, 1.0967106819152832, 2.4512438774108887, 0.1993427872657776, -0.44166630506515503, 
303, 1770132165, -73.64221954345703, -73.97411346435547, -46.23336410522461, 9.791077613830566, -2.1675941944122314, 0.4618203341960907, 1.8709278106689453, 0.7159051299095154, -0.18939167261123657, 
304, 1770140498, -73.6173095703125, -73.96831512451172, -46.256961822509766, 9.557777404785156, -1.669519305229187, 1.860600471496582, 1.7949045896530151, 2.0437984466552734, 0.9805256128311157, 
305, 1770148831, -73.63847351074219, -73.96188354492188, -46.242698669433594, 9.275310516357422, -2.144117593765259, 1.1412742137908936, 0.6284324526786804, 0.8632893562316895, 1.4100251197814941, 
306, 1770157164, -73.63023376464844, -73.9566421508789, -46.254615783691406, 9.244732856750488, -3.200402021408081, 0.38246044516563416, 1.1286016702651978, 1.5750831365585327, 1.0894886255264282, 
307, 1770165497, -73.6501235961914, -73.96339416503906, -46.22972106933594, 9.308415412902832, -3.2029929161071777, 0.5220479369163513, 2.0090651512145996, 0.07934010028839111, -0.009297966957092285, 
308, 1770173830, -73.63533020019531, -73.97158813476562, -46.2408332824707, 9.742499351501465, -2.4906156063079834, 0.452951580286026, 2.1699228286743164, 1.0595968961715698, -0.4341101050376892, 
309, 1770182163, -73.63797760009766, -73.9710464477539, -46.23820877075195, 9.739831924438477, -1.7792620658874512, 1.7215496301651, 1.6679860353469849, 0.9105731844902039, 0.6981799006462097, 
310, 1770190496, -73.6269302368164, -73.96174621582031, -46.252445220947266, 9.37402057647705, -1.930798888206482, 0.8126338720321655, 1.205290675163269, 1.8651131391525269, 1.4720373153686523, 
311, 1770198829, -73.638671875, -73.95649719238281, -46.24895477294922, 9.170462608337402, -2.989773988723755, 1.3849449157714844, 0.5234396457672119, 1.1657167673110962, 1.1717358827590942, 
312, 1770207162, -73.64140319824219, -73.95823669433594, -46.24392318725586, 9.349384307861328, -3.3962554931640625, -0.5379767417907715, 1.7496187686920166, 0.8186693787574768, 0.4421145021915436, 
313, 1770215495, -73.64099884033203, -73.96781921386719, -46.237327575683594, 9.63921070098877, -2.7455193996429443, 1.0585538148880005, 2.3364405632019043, 0.5655238032341003, -0.5071874260902405, 
314, 1770223828, -73.64769744873047, -73.97177124023438, -46.22710418701172, 9.801520347595215, -1.8859376907348633, 0.943888247013092, 1.8564300537109375, 0.5777930617332458, 0.23761044442653656, 
315, 1770232161, -73.62659454345703, -73.96355438232422, -46.250736236572266, 9.364910125732422, -1.7178397178649902, 1.2683775424957275, 1.5437060594558716, 1.9828107357025146, 1.3387153148651123, 
316, 1770240494, -73.65818786621094, -73.95789337158203, -46.23035430908203, 9.225373268127441, -2.5317704677581787, 1.5033631324768066, 0.08123554289340973, 0.6429812908172607, 1.378750205039978, 
317, 1770248827, -73.65510559082031, -73.95535278320312, -46.23543930053711, 9.33967399597168, -3.4459757804870605, -0.4894541800022125, 1.3060826063156128, 1.3455028533935547, 0.7802479863166809, 
318, 1770257160, -73.66629028320312, -73.96524810791016, -46.2153434753418, 9.406964302062988, -3.024202585220337, 0.9866967797279358, 2.3153088092803955, 0.11133226752281189, -0.3666677474975586, 
319, 1770265493, -73.6641845703125, -73.97209930419922, -46.2137451171875, 9.78157901763916, -2.279182195663452, 0.34971144795417786, 1.9607311487197876, 0.8170812129974365, -0.23944184184074402, 
320, 1770273826, -73.63737487792969, -73.96630096435547, -46.24118423461914, 9.534537315368652, -1.6859352588653564, 1.9450242519378662, 1.623366355895996, 2.0743563175201416, 1.0064729452133179, 
321, 1770282159, -73.65516662597656, -73.96084594726562, -46.22932815551758, 9.286957740783691, -2.115262269973755, 0.9674867987632751, 0.6556602716445923, 0.8615219593048096, 1.3290073871612549, 
322, 1770290492, -73.65105438232422, -73.95506286621094, -46.23884963989258, 9.267217636108398, -3.179872989654541, 0.563757061958313, 0.910317063331604, 1.5998778343200684, 1.1190217733383179, 
323, 1770298825, -73.6664810180664, -73.96154022216797, -46.21831130981445, 9.387885093688965, -3.2601535320281982, 0.3523196280002594, 2.0460264682769775, 0.2261352688074112, -0.0232321098446846, 
324, 1770307158, -73.64907836914062, -73.97030639648438, -46.23090744018555, 9.758602142333984, -2.516465187072754, 0.4707386791706085, 2.252272605895996, 1.1007076501846313, -0.521121621131897, 
325, 1770315491, -73.65190887451172, -73.9700927734375, -46.22748565673828, 9.741850852966309, -1.774229645729065, 1.6246967315673828, 1.5764923095703125, 0.9973031282424927, 0.5952876806259155, 
326, 1770323824, -73.63360595703125, -73.96186828613281, -46.24805450439453, 9.407477378845215, -1.8867368698120117, 0.7647090554237366, 1.3622033596038818, 1.9531495571136475, 1.3559792041778564, 
327, 1770332157, -73.63851928710938, -73.95723724365234, -46.253238677978516, 9.203129768371582, -2.8987746238708496, 1.4879214763641357, 0.45945531129837036, 1.3150476217269897, 1.0834180116653442, 
328, 1770340490, -73.64447784423828, -73.95880126953125, -46.24455642700195, 9.332610130310059, -3.3627917766571045, -0.4888739287853241, 1.8097609281539917, 0.7708988785743713, 0.44167909026145935, 
329, 1770348823, -73.6357192993164, -73.96865844726562, -46.24595260620117, 9.605353355407715, -2.741140842437744, 1.1698906421661377, 2.404651641845703, 0.8129830360412598, -0.612026572227478, 
330, 1770357156, -73.64368438720703, -73.97329711914062, -46.23548889160156, 9.84700870513916, -1.9771093130111694, 0.8686975240707397, 1.8064309358596802, 0.5280246138572693, 0.158974751830101, 
331, 1770365489, -73.61509704589844, -73.96382904052734, -46.26475143432617, 9.442184448242188, -1.8005684614181519, 1.4115222692489624, 1.5801806449890137, 2.3510665893554688, 1.3528542518615723, 
332, 1770373822, -73.63665771484375, -73.95838928222656, -46.25407028198242, 9.32138442993164, -2.5774054527282715, 1.2567044496536255, 0.3130955696105957, 0.819104790687561, 1.3384846448898315, 
333, 1770382155, -73.6232681274414, -73.95559692382812, -46.27004623413086, 9.286728858947754, -3.3675143718719482, -0.2593487799167633, 1.4852030277252197, 1.579668402671814, 0.7869333028793335, 
334, 1770390488, -73.63416290283203, -73.96572875976562, -46.24991989135742, 9.45916748046875, -3.0111751556396484, 0.8632898926734924, 2.544146776199341, 0.11335580796003342, -0.44668662548065186, 
335, 1770398821, -73.62451171875, -73.97244262695312, -46.25506591796875, 9.74604606628418, -2.1845405101776123, 0.4409410059452057, 2.0856263637542725, 1.0361084938049316, -0.28311410546302795, 
336, 1770407154, -73.60225677490234, -73.96676635742188, -46.276607513427734, 9.55496597290039, -1.6299114227294922, 1.9268320798873901, 1.7164738178253174, 1.902458906173706, 1.0462006330490112, 
337, 1770415487, -73.61614227294922, -73.95952606201172, -46.26975631713867, 9.297209739685059, -2.1267876625061035, 1.0548053979873657, 0.6496154069900513, 1.1248105764389038, 1.4312080144882202, 
338, 1770423820, -73.61198425292969, -73.95489501953125, -46.27617645263672, 9.25678825378418, -3.213071346282959, 0.6875733137130737, 0.9131090044975281, 1.482385277748108, 1.0498377084732056, 
339, 1770432153, -73.62370300292969, -73.96090698242188, -46.259517669677734, 9.300214767456055, -3.241722583770752, 0.2513466775417328, 2.041339159011841, 0.2897354066371918, 0.05961712822318077, 
340, 1770440486, -73.60932159423828, -73.96895599365234, -46.26768112182617, 9.760537147521973, -2.5402495861053467, 0.5999523997306824, 2.2997612953186035, 1.089002013206482, -0.4631565809249878, 
341, 1770448819, -73.61620330810547, -73.96929168701172, -46.259281158447266, 9.643058776855469, -1.7498489618301392, 1.552139401435852, 1.6668078899383545, 0.8218967914581299, 0.5755903124809265, 
342, 1770457152, -73.60181427001953, -73.95991516113281, -46.277099609375, 9.345952987670898, -1.8787274360656738, 0.8852455019950867, 1.2072117328643799, 1.8998208045959473, 1.5070520639419556, 
343, 1770465485, -73.61597442626953, -73.9546127319336, -46.271629333496094, 9.121691703796387, -2.894183874130249, 1.3855136632919312, 0.4554338753223419, 1.1046010255813599, 1.1976063251495361, 
344, 1770473818, -73.62024688720703, -73.95606994628906, -46.2657470703125, 9.349282264709473, -3.370962381362915, -0.4392142593860626, 1.671520709991455, 0.7968971729278564, 0.480817586183548, 
345, 1770482151, -73.61157989501953, -73.96490478515625, -46.26559829711914, 9.616964340209961, -2.7702224254608154, 1.0225340127944946, 2.498527765274048, 0.749177873134613, -0.422762930393219, 
346, 1770490484, -73.6210708618164, -73.96875, -46.25307846069336, 9.819818496704102, -1.9939731359481812, 0.8951796889305115, 1.8187003135681152, 0.5749499797821045, 0.2149418443441391, 
347, 1770498817, -73.59688568115234, -73.95944213867188, -46.2767219543457, 9.413017272949219, -1.7689353227615356, 1.3696632385253906, 1.7007981538772583, 2.1649794578552246, 1.3853331804275513, 
348, 1770507150, -73.62443542480469, -73.95442199707031, -46.262298583984375, 9.203747749328613, -2.482565402984619, 1.3631244897842407, 0.22339454293251038, 0.631583034992218, 1.3397397994995117, 
349, 1770515483, -73.6192626953125, -73.9511947631836, -46.26996612548828, 9.308671951293945, -3.3043324947357178, -0.2854517698287964, 1.2634860277175903, 1.4511103630065918, 0.8323473334312439, 
350, 1770523816, -73.62769317626953, -73.96102142333984, -46.25309371948242, 9.359928131103516, -3.011549711227417, 1.0674757957458496, 2.337644577026367, 0.19565433263778687, -0.38262540102005005, 
351, 1770532149, -73.623779296875, -73.96774291992188, -46.25434875488281, 9.835230827331543, -2.2310497760772705, 0.39116084575653076, 1.9669042825698853, 0.806348979473114, -0.18011930584907532, 
352, 1770540482, -73.60302734375, -73.963134765625, -46.27439498901367, 9.537393569946289, -1.659711241722107, 1.9564967155456543, 1.6974939107894897, 1.8943136930465698, 0.8809120059013367, 
353, 1770548815, -73.61732482910156, -73.95536041259766, -46.26642990112305, 9.292891502380371, -2.1242454051971436, 0.9559748768806458, 0.7312992215156555, 1.106573462486267, 1.5041320323944092, 
354, 1770557148, -73.61290740966797, -73.95051574707031, -46.276241302490234, 9.212160110473633, -3.2629828453063965, 0.6821939945220947, 0.9060394167900085, 1.5022876262664795, 1.0619789361953735, 
355, 1770565481, -73.6283187866211, -73.9573745727539, -46.25485610961914, 9.362046241760254, -3.3011412620544434, 0.17027610540390015, 2.1378793716430664, 0.18561355769634247, -0.05166391655802727, 
356, 1770573814, -73.61436462402344, -73.9671401977539, -46.26005935668945, 9.733500480651855, -2.559884548187256, 0.6194164752960205, 2.4034221172332764, 0.9223046898841858, -0.5916632413864136, 
357, 1770582147, -73.61404418945312, -73.96833038330078, -46.26156234741211, 9.794790267944336, -1.7159594297409058, 1.5312238931655884, 1.648058295249939, 0.9496349096298218, 0.46918874979019165, 
358, 1770590480, -73.60087585449219, -73.95894622802734, -46.277557373046875, 9.300565719604492, -1.8004800081253052, 0.9690688848495483, 1.2666112184524536, 1.923232078552246, 1.462893009185791, 
359, 1770598813, -73.6177749633789, -73.95356750488281, -46.26914596557617, 9.195237159729004, -2.878697395324707, 1.5434762239456177, 0.46427080035209656, 1.0134912729263306, 1.2344908714294434, 
360, 1770607146, -73.6221923828125, -73.9552001953125, -46.263946533203125, 9.320127487182617, -3.4242606163024902, -0.47248247265815735, 1.612992286682129, 0.8057085275650024, 0.4574830234050751, 
361, 1770615479, -73.61894226074219, -73.96612548828125, -46.25907897949219, 9.650993347167969, -2.8424057960510254, 1.056944727897644, 2.4711203575134277, 0.5769990086555481, -0.6732445359230042, 
362, 1770623812, -73.62883758544922, -73.97224426269531, -46.24604797363281, 9.737947463989258, -1.9946178197860718, 0.7890083193778992, 1.8316866159439087, 0.40684372186660767, 0.01330659445375204, 
363, 1770632145, -73.60277557373047, -73.96424865722656, -46.27290344238281, 9.411418914794922, -1.706810474395752, 1.3841184377670288, 1.6738262176513672, 2.1000471115112305, 1.2782143354415894, 
364, 1770640478, -73.63121032714844, -73.95816040039062, -46.25498580932617, 9.235820770263672, -2.431215286254883, 1.385770320892334, 0.18374373018741608, 0.7353718876838684, 1.4061063528060913, 
365, 1770648811, -73.62836456298828, -73.95443725585938, -46.260231018066406, 9.369199752807617, -3.338092803955078, -0.16390249133110046, 1.2581326961517334, 1.3904814720153809, 0.9154142737388611, 
366, 1770657144, -73.64266967773438, -73.96466827392578, -46.24233627319336, 9.434589385986328, -3.110501289367676, 0.9010854363441467, 2.200839042663574, 0.02140069380402565, -0.38828617334365845, 
367, 1770665477, -73.63551330566406, -73.97128295898438, -46.2457275390625, 9.787519454956055, -2.307750940322876, 0.35345911979675293, 1.9889837503433228, 0.9820881485939026, -0.2566034197807312, 
368, 1770673810, -73.61714935302734, -73.96773529052734, -46.26260757446289, 9.617657661437988, -1.6668530702590942, 1.9277199506759644, 1.729870319366455, 1.701003074645996, 0.845743715763092, 
369, 1770682143, -73.6268539428711, -73.96040344238281, -46.259273529052734, 9.283307075500488, -2.048955202102661, 0.9440045952796936, 0.8294785618782043, 1.1341086626052856, 1.480797290802002, 
370, 1770690476, -73.62600708007812, -73.95442199707031, -46.264774322509766, 9.26402759552002, -3.1382927894592285, 0.6642215847969055, 0.992948591709137, 1.476314663887024, 1.169917345046997, 
371, 1770698809, -73.64178466796875, -73.958740234375, -46.244354248046875, 9.230303764343262, -3.206871271133423, 0.270980566740036, 1.9848085641860962, 0.3009800612926483, 0.22951634228229523, 
372, 1770707142, -73.631591796875, -73.96769714355469, -46.24754333496094, 9.787633895874023, -2.5462820529937744, 0.5252213478088379, 2.300171136856079, 0.8498674631118774, -0.46722927689552307, 
373, 1770715475, -73.63832092285156, -73.9688491821289, -46.23912048339844, 9.766178131103516, -1.7964556217193604, 1.585965633392334, 1.6881189346313477, 0.7915951013565063, 0.4838913083076477, 
374, 1770723808, -73.61621856689453, -73.9591293334961, -46.260276794433594, 9.41562557220459, -1.8545444011688232, 0.883807897567749, 1.4417099952697754, 2.1011486053466797, 1.4898390769958496, 
375, 1770732141, -73.62895965576172, -73.95468139648438, -46.2559814453125, 9.216545104980469, -2.8530259132385254, 1.436820149421692, 0.38443121314048767, 1.0623630285263062, 1.147965908050537, 
376, 1770740474, -73.63337707519531, -73.95533752441406, -46.25053024291992, 9.325726509094238, -3.398721694946289, -0.5569429397583008, 1.618883728981018, 0.9046564102172852, 0.5109655857086182, 
377, 1770748807, -73.62873840332031, -73.96512603759766, -46.246917724609375, 9.525840759277344, -2.802072286605835, 1.1467053890228271, 2.5783674716949463, 0.5545865893363953, -0.4875413179397583, 
378, 1770757140, -73.63903045654297, -73.97010803222656, -46.233421325683594, 9.856389045715332, -1.995262622833252, 0.6707522869110107, 1.842700719833374, 0.5022311210632324, 0.08561557531356812, 
379, 1770765473, -73.61974334716797, -73.96183776855469, -46.25239562988281, 9.453713417053223, -1.6801618337631226, 1.4715625047683716, 1.6504404544830322, 1.9821704626083374, 1.313126564025879, 
380, 1770773806, -73.64156341552734, -73.95608520507812, -46.24238204956055, 9.277966499328613, -2.392733335494995, 1.3611502647399902, 0.33153781294822693, 0.8114717602729797, 1.373396873474121, 
381, 1770782139, -73.6346664428711, -73.95124816894531, -46.252197265625, 9.300765991210938, -3.370678186416626, -0.1272696852684021, 1.2202239036560059, 1.5749298334121704, 1.0022209882736206, 
382, 1770790472, -73.6436767578125, -73.96017456054688, -46.23213195800781, 9.38413143157959, -3.1099014282226562, 0.865703284740448, 2.254039764404297, 0.2355612963438034, -0.2823456823825836, 
383, 1770798805, -73.6301040649414, -73.96736145019531, -46.240291595458984, 9.697364807128906, -2.39534592628479, 0.3233609199523926, 2.202939510345459, 1.0469945669174194, -0.30445078015327454, 
384, 1770807138, -73.6123046875, -73.96419525146484, -46.256591796875, 9.689467430114746, -1.723340630531311, 1.853654146194458, 1.7772566080093384, 1.7244144678115845, 0.7480253577232361, 
385, 1770815471, -73.62044525146484, -73.95579528808594, -46.25341796875, 9.269065856933594, -1.974143385887146, 0.9460583329200745, 0.9144409894943237, 1.2831323146820068, 1.5347408056259155, 
386, 1770823804, -73.61736297607422, -73.9500961303711, -46.26185607910156, 9.274314880371094, -3.0151326656341553, 0.9267882704734802, 0.8879045844078064, 1.4832050800323486, 1.177575945854187, 
387, 1770832137, -73.63177490234375, -73.9539794921875, -46.24457931518555, 9.238574981689453, -3.2818984985351562, 0.16913926601409912, 1.7799205780029297, 0.4203680455684662, 0.25318390130996704, 
388, 1770840470, -73.61858367919922, -73.96321868896484, -46.250946044921875, 9.7026948928833, -2.7249929904937744, 0.5577021241188049, 2.3840835094451904, 0.9102403521537781, -0.5295999646186829, 
389, 1770848803, -73.62791442871094, -73.96707916259766, -46.23748016357422, 9.77396297454834, -1.9516187906265259, 1.304604172706604, 1.7698794603347778, 0.5091469883918762, 0.2619439661502838, 
390, 1770857136, -73.60211181640625, -73.95813751220703, -46.26432418823242, 9.474918365478516, -1.843953013420105, 0.9563856720924377, 1.5237011909484863, 2.2563962936401367, 1.3164820671081543, 
391, 1770865469, -73.61840057373047, -73.95157623291016, -46.25905990600586, 9.187355041503906, -2.618149757385254, 1.6360992193222046, 0.1782110333442688, 1.1527045965194702, 1.3377161026000977, 
392, 1770873802, -73.61466979980469, -73.95063018798828, -46.261962890625, 9.275773048400879, -3.331923723220825, -0.5777063369750977, 1.5140957832336426, 1.180214285850525, 0.6780728101730347, 
393, 1770882135, -73.61566925048828, -73.96036529541016, -46.25385665893555, 9.415437698364258, -2.9173972606658936, 1.241987943649292, 2.3351857662200928, 0.5111704468727112, -0.5068032145500183, 
394, 1770890468, -73.62139892578125, -73.96723175048828, -46.24409103393555, 9.858453750610352, -2.2103562355041504, 0.5402629971504211, 1.84444260597229, 0.5125280022621155, -0.11470054090023041, 
395, 1770898801, -73.59260559082031, -73.9612808227539, -46.27085876464844, 9.557914733886719, -1.7263754606246948, 1.7236521244049072, 1.7157056331634521, 2.1202569007873535, 1.0130046606063843, 
396, 1770907134, -73.61426544189453, -73.95529174804688, -46.25748062133789, 9.312829971313477, -2.233382225036621, 1.2062768936157227, 0.467677503824234, 0.8756097555160522, 1.3515478372573853, 
397, 1770915467, -73.60462951660156, -73.95040130615234, -46.27166748046875, 9.163115501403809, -3.273118257522583, 0.21641486883163452, 1.0384907722473145, 1.717344880104065, 0.968563973903656, 
398, 1770923800, -73.61803436279297, -73.95854187011719, -46.252986907958984, 9.291507720947266, -3.233459711074829, 0.5539329648017883, 2.068951368331909, 0.15349330008029938, -0.1669023483991623, 
399, 1770932133, -73.60371398925781, -73.96851348876953, -46.2607421875, 9.743118286132812, -2.464586019515991, 0.31304630637168884, 2.3418712615966797, 1.0090856552124023, -0.6823376417160034, 
400, 1770940466, -73.59626770019531, -73.96961212158203, -46.26611328125, 9.793340682983398, -1.6608860492706299, 1.8329123258590698, 1.78455650806427, 1.1649994850158691, 0.4217511713504791, 
401, 1770948799, -73.58979797363281, -73.96024322509766, -46.26581954956055, 9.378791809082031, -1.8323673009872437, 0.8194103240966797, 1.3303649425506592, 1.6070499420166016, 1.5976752042770386, 
402, 1770957132, -73.59660339355469, -73.95436096191406, -46.2683219909668, 9.173933029174805, -2.8919944763183594, 1.4950181245803833, 0.41568058729171753, 1.379185676574707, 1.1904343366622925, 
403, 1770965465, -73.61090087890625, -73.95513916015625, -46.25259017944336, 9.29934024810791, -3.425597667694092, -0.33222782611846924, 1.6225976943969727, 0.5725421905517578, 0.5954412817955017, 
404, 1770973798, -73.59817504882812, -73.96375274658203, -46.25712203979492, 9.581013679504395, -2.8095180988311768, 0.8938215970993042, 2.6229872703552246, 0.8545293807983398, -0.431599885225296, 
405, 1770982131, -73.6170883178711, -73.97067260742188, -46.235260009765625, 9.80358600616455, -2.020944356918335, 0.9828449487686157, 1.76621675491333, 0.16996324062347412, -0.05184321478009224, 
406, 1770990464, -73.58323669433594, -73.96259307861328, -46.269248962402344, 9.528108596801758, -1.6963382959365845, 1.1480069160461426, 1.6651941537857056, 2.380445957183838, 1.2036769390106201, 
407, 1770998797, -73.60343933105469, -73.95693969726562, -46.25937271118164, 9.141963958740234, -2.3930983543395996, 1.6832642555236816, 0.26020219922065735, 0.8941287398338318, 1.3468605279922485, 
408, 1771007130, -73.60205841064453, -73.9531478881836, -46.26359176635742, 9.33064079284668, -3.3265602588653564, -0.4661708474159241, 1.206648349761963, 1.3592065572738647, 0.9331138730049133, 
409, 1771015463, -73.6148681640625, -73.96168518066406, -46.244747161865234, 9.341341972351074, -3.0954430103302, 1.1462854146957397, 2.1565520763397217, 0.21099723875522614, -0.2695898115634918, 
410, 1771023796, -73.6095199584961, -73.96953582763672, -46.244651794433594, 9.8648099899292, -2.3603923320770264, 0.14358113706111908, 2.041826009750366, 0.7979218363761902, -0.312263160943985, 
411, 1771032129, -73.59295654296875, -73.9652099609375, -46.259490966796875, 9.656384468078613, -1.7611160278320312, 1.9830069541931152, 1.8095306158065796, 1.7147578001022339, 0.8920029997825623, 
412, 1771040462, -73.60697174072266, -73.95858764648438, -46.250545501708984, 9.338947296142578, -2.0098211765289307, 0.9928892254829407, 0.864006519317627, 0.9660024046897888, 1.4463205337524414, 
413, 1771048795, -73.59700775146484, -73.95294189453125, -46.267433166503906, 9.199113845825195, -3.0117223262786865, 0.825190007686615, 0.8503285050392151, 1.7283844947814941, 1.0963789224624634, 
414, 1771057128, -73.62185668945312, -73.9571533203125, -46.23859786987305, 9.278718948364258, -3.2377524375915527, 0.2821473777294159, 1.8641656637191772, 0.03984294459223747, 0.3228546679019928, 
415, 1771065461, -73.60940551757812, -73.9664535522461, -46.243900299072266, 9.650225639343262, -2.6819207668304443, 0.42552322149276733, 2.4091596603393555, 0.9515816569328308, -0.5862330198287964, 
416, 1771073794, -73.615966796875, -73.9695053100586, -46.235530853271484, 9.85942554473877, -1.8691511154174805, 1.572839617729187, 1.6930111646652222, 0.6547638773918152, 0.3232131898403168, 
417, 1771082127, -73.59247589111328, -73.96006774902344, -46.26113510131836, 9.400275230407715, -1.7648667097091675, 0.7624073624610901, 1.3860759735107422, 2.2345221042633057, 1.3874846696853638, 
418, 1771090460, -73.61055755615234, -73.95489501953125, -46.25684356689453, 9.236266136169434, -2.708645820617676, 1.828660011291504, 0.2281331717967987, 0.9437949061393738, 1.2614370584487915, 
419, 1771098793, -73.61543273925781, -73.95406341552734, -46.25244903564453, 9.29848575592041, -3.470451831817627, -0.8244961500167847, 1.3574904203414917, 0.9365460276603699, 0.7364475727081299, 
420, 1771107126, -73.61109161376953, -73.96231842041016, -46.2483024597168, 9.507868766784668, -2.942643642425537, 1.1958822011947632, 2.5222465991973877, 0.6887795925140381, -0.3754791021347046, 
421, 1771115459, -73.62369537353516, -73.96871948242188, -46.231449127197266, 9.805225372314453, -2.1043715476989746, 0.4236944913864136, 1.959629774093628, 0.3436533808708191, -0.04408210143446922, 
422, 1771123792, -73.59224700927734, -73.96158599853516, -46.26620101928711, 9.54784107208252, -1.6652098894119263, 1.7210677862167358, 1.7440860271453857, 2.2365965843200684, 1.1320083141326904, 
423, 1771132125, -73.62359619140625, -73.95527648925781, -46.24391555786133, 9.245902061462402, -2.1996355056762695, 1.3821866512298584, 0.33701929450035095, 0.6016143560409546, 1.4698601961135864, 
424, 1771140458, -73.61126708984375, -73.9494857788086, -46.25368118286133, 9.289237976074219, -3.254873275756836, 0.07507503032684326, 1.0970449447631836, 1.7430872917175293, 1.1102875471115112, 
425, 1771148791, -73.62963104248047, -73.95730590820312, -46.230445861816406, 9.2587890625, -3.2066028118133545, 0.8121392130851746, 1.981248140335083, 0.023782815784215927, -0.08870209008455276, 
426, 1771157124, -73.61688995361328, -73.96504974365234, -46.23766326904297, 9.793691635131836, -2.507352352142334, 0.10054436326026917, 2.2142608165740967, 1.0684850215911865, -0.4175889194011688, 
427, 1771165457, -73.61295318603516, -73.96424865722656, -46.2392578125, 9.668066024780273, -1.7044479846954346, 1.9311413764953613, 1.8228754997253418, 1.1731191873550415, 0.6072238087654114, 
428, 1771173790, -73.60728454589844, -73.95614624023438, -46.2468147277832, 9.32482624053955, -1.914795160293579, 0.6556562185287476, 1.1502200365066528, 1.5875320434570312, 1.451904535293579, 
429, 1771182123, -73.6077880859375, -73.9494857788086, -46.25380325317383, 9.180298805236816, -2.9387776851654053, 1.4025579690933228, 0.6572741270065308, 1.5457807779312134, 1.2394344806671143, 
430, 1771190456, -73.62531280517578, -73.95269775390625, -46.23365020751953, 9.336756706237793, -3.3658154010772705, -0.21623267233371735, 1.6290013790130615, 0.31168681383132935, 0.4119921922683716, 
431, 1771198789, -73.6095962524414, -73.96128845214844, -46.23826599121094, 9.658849716186523, -2.808619260787964, 0.7387740015983582, 2.6455020904541016, 0.9423092603683472, -0.4596218466758728, 
432, 1771207122, -73.6290054321289, -73.96654510498047, -46.21736145019531, 9.773065567016602, -2.000199556350708, 1.1405565738677979, 1.6085612773895264, 0.2533631920814514, 0.12639343738555908, 
433, 1771215455, -73.5967025756836, -73.95806884765625, -46.249900817871094, 9.433831214904785, -1.7793439626693726, 0.9836036562919617, 1.6510807275772095, 2.419610023498535, 1.2053163051605225, 
434, 1771223788, -73.61788940429688, -73.95372009277344, -46.23313522338867, 9.198856353759766, -2.4454784393310547, 1.7678823471069336, 0.28678980469703674, 0.8044791221618652, 1.2077752351760864, 
435, 1771232121, -73.61566162109375, -73.95065307617188, -46.237422943115234, 9.294116973876953, -3.333163261413574, -0.6153087615966797, 1.2973737716674805, 1.3405593633651733, 0.847536563873291, 
436, 1771240454, -73.62016296386719, -73.95938873291016, -46.22541427612305, 9.360677719116211, -3.0032577514648438, 1.273869276046753, 2.2295782566070557, 0.38993826508522034, -0.29727882146835327, 
437, 1771248787, -73.61785125732422, -73.96644592285156, -46.22257995605469, 9.852548599243164, -2.3096277713775635, 0.17492280900478363, 2.0154688358306885, 0.7237685918807983, -0.19876644015312195, 
438, 1771257120, -73.59446716308594, -73.96098327636719, -46.24559020996094, 9.556548118591309, -1.675351619720459, 2.0452094078063965, 1.6752861738204956, 2.0171594619750977, 0.9527599811553955, 
439, 1771265453, -73.6159439086914, -73.95470428466797, -46.23149490356445, 9.321085929870605, -2.1243226528167725, 1.008933663368225, 0.5754109621047974, 0.8614451289176941, 1.3891240358352661, 
440, 1771273786, -73.60038757324219, -73.94961547851562, -46.25215148925781, 9.238062858581543, -3.2105798721313477, 0.5593263506889343, 0.9887734055519104, 1.8519988059997559, 0.9943574070930481, 
441, 1771282119, -73.61869812011719, -73.95809936523438, -46.228248596191406, 9.329118728637695, -3.3171770572662354, 0.33466964960098267, 2.0832183361053467, 0.050319164991378784, -0.21800273656845093, 
442, 1771290452, -73.59620666503906, -73.96748352050781, -46.24366760253906, 9.721582412719727, -2.5523526668548584, 0.3559924364089966, 2.46097731590271, 1.1991431713104248, -0.6246287822723389, 
443, 1771298785, -73.59806060791016, -73.96967315673828, -46.24250030517578, 9.778018951416016, -1.6527130603790283, 1.7605897188186646, 1.6255433559417725, 0.8552464842796326, 0.36662936210632324, 
444, 1771307118, -73.58303833007812, -73.96004486083984, -46.260345458984375, 9.327960968017578, -1.7772619724273682, 0.7736782431602478, 1.2731684446334839, 1.9919551610946655, 1.4763405323028564, 
445, 1771315451, -73.59741973876953, -73.95394897460938, -46.255130767822266, 9.178019523620605, -2.8571159839630127, 1.693953275680542, 0.3989545404911041, 1.139923095703125, 1.287256121635437, 
446, 1771323784, -73.60530853271484, -73.954345703125, -46.24671173095703, 9.378518104553223, -3.4559290409088135, -0.6221278309822083, 1.554694414138794, 0.743927001953125, 0.6361166834831238, 
447, 1771332117, -73.59335327148438, -73.96389770507812, -46.24957275390625, 9.617925643920898, -2.8895652294158936, 1.062705159187317, 2.62626576423645, 0.8643139004707336, -0.5907410979270935, 
448, 1771340450, -73.60808563232422, -73.97067260742188, -46.231040954589844, 9.76987075805664, -2.0634114742279053, 0.8573088049888611, 1.8853743076324463, 0.2104593813419342, -0.006429173517972231, 
449, 1771348783, -73.57341766357422, -73.9630126953125, -46.26705551147461, 9.48013687133789, -1.70295250415802, 1.374245285987854, 1.6795127391815186, 2.3840322494506836, 1.152602195739746, 
450, 1771357116, -73.6028060913086, -73.95783996582031, -46.2471923828125, 9.177597999572754, -2.3684637546539307, 1.5801416635513306, 0.29378241300582886, 0.6393952965736389, 1.3156622648239136, 
451, 1771365449, -73.59226989746094, -73.9534683227539, -46.259700775146484, 9.387333869934082, -3.2918004989624023, -0.296951025724411, 1.3463482856750488, 1.6465469598770142, 0.9238157272338867, 
452, 1771373782, -73.6027603149414, -73.96278381347656, -46.240867614746094, 9.368956565856934, -3.1186461448669434, 1.0554345846176147, 2.236365795135498, 0.1785183995962143, -0.3129803240299225, 
453, 1771382115, -73.5922622680664, -73.96965026855469, -46.24699783325195, 9.829976081848145, -2.3652522563934326, 0.20939460396766663, 2.0715129375457764, 1.0600836277008057, -0.30780625343322754, 
454, 1771390448, -73.57508087158203, -73.96649932861328, -46.26333236694336, 9.591221809387207, -1.7028744220733643, 1.9916245937347412, 1.7504383325576782, 1.6353281736373901, 0.8115999102592468, 
455, 1771398781, -73.58877563476562, -73.96040344238281, -46.255218505859375, 9.308812141418457, -1.9941318035125732, 0.8644626140594482, 0.765929639339447, 0.9852643013000488, 1.3748568296432495, 
456, 1771407114, -73.5805892944336, -73.95463562011719, -46.26927947998047, 9.219136238098145, -3.083308696746826, 0.8292883038520813, 0.8792213797569275, 1.7420369386672974, 1.0687154531478882, 
457, 1771415447, -73.60222625732422, -73.95904541015625, -46.24409866333008, 9.254833221435547, -3.2927417755126953, 0.2532517910003662, 1.8316609859466553, 0.14627009630203247, 0.2665545344352722, 
458, 1771423780, -73.58292388916016, -73.9672622680664, -46.25608444213867, 9.696849822998047, -2.6761696338653564, 0.5215753316879272, 2.468687057495117, 1.1255536079406738, -0.4573166072368622, 
459, 1771432113, -73.5923843383789, -73.96879577636719, -46.2446174621582, 9.82598876953125, -1.8347963094711304, 1.5580921173095703, 1.7164738178253174, 0.679481565952301, 0.46457815170288086, 
460, 1771440446, -73.56675720214844, -73.95994567871094, -46.27238845825195, 9.417801856994629, -1.7811076641082764, 0.8267297744750977, 1.372602939605713, 2.2102396488189697, 1.3566707372665405, 
461, 1771448779, -73.58586120605469, -73.95494079589844, -46.26499938964844, 9.202611923217773, -2.7370567321777344, 1.649080753326416, 0.2337682992219925, 0.9138261675834656, 1.2580559253692627, 
462, 1771457112, -73.5887222290039, -73.95466613769531, -46.26095199584961, 9.30932903289795, -3.440141439437866, -0.7164106369018555, 1.6492364406585693, 0.9763761758804321, 0.602920651435852, 
463, 1771465445, -73.58309936523438, -73.96418762207031, -46.257694244384766, 9.509773254394531, -2.8823435306549072, 1.2143608331680298, 2.5803651809692383, 0.671131432056427, -0.5284217000007629, 
464, 1771473778, -73.5927734375, -73.97191619873047, -46.240509033203125, 9.817863464355469, -2.057835578918457, 0.528558075428009, 1.9702852964401245, 0.3275676369667053, -0.1525839865207672, 
465, 1771482111, -73.56703186035156, -73.9649887084961, -46.26568603515625, 9.473542213439941, -1.6887307167053223, 1.6065874099731445, 1.7066893577575684, 2.1335253715515137, 1.098069429397583, 
466, 1771490444, -73.59687042236328, -73.95773315429688, -46.24325180053711, 9.27635383605957, -2.2713515758514404, 1.4715029001235962, 0.25423410534858704, 0.6270748972892761, 1.6205999851226807, 
467, 1771498777, -73.5870361328125, -73.95227813720703, -46.25722122192383, 9.295475959777832, -3.31246018409729, -0.04726636782288551, 0.9896700978279114, 1.6889897584915161, 1.0862869024276733, 
468, 1771507110, -73.60803985595703, -73.96038818359375, -46.23012161254883, 9.338359832763672, -3.195831060409546, 0.861572802066803, 2.128735303878784, -0.04077786207199097, -0.14653903245925903, 
469, 1771515443, -73.59886932373047, -73.96849822998047, -46.2351188659668, 9.730745315551758, -2.4679412841796875, 0.21140988171100616, 2.050201892852783, 0.9803464412689209, -0.4429982304573059, 
470, 1771523776, -73.58953857421875, -73.96753692626953, -46.24460983276367, 9.649428367614746, -1.6905872821807861, 1.908413052558899, 1.6976988315582275, 1.316277265548706, 0.6340932250022888, 
471, 1771532109, -73.59500885009766, -73.95997619628906, -46.24388885498047, 9.32829761505127, -1.8951152563095093, 0.7120160460472107, 0.9472529292106628, 1.3303648233413696, 1.4170691967010498, 
472, 1771540442, -73.59093475341797, -73.95462036132812, -46.251564025878906, 9.19583511352539, -3.0046441555023193, 1.2433462142944336, 0.7310686707496643, 1.5472661256790161, 1.1078283786773682, 
473, 1771548775, -73.60448455810547, -73.95841979980469, -46.235191345214844, 9.325980186462402, -3.342672824859619, -0.15124644339084625, 1.6501842737197876, 0.4166795611381531, 0.3082032799720764, 
474, 1771557108, -73.59102630615234, -73.96674346923828, -46.241111755371094, 9.73000431060791, -2.719562530517578, 0.6864728927612305, 2.4642817974090576, 1.0024516582489014, -0.47873011231422424, 
475, 1771565441, -73.60951232910156, -73.97118377685547, -46.2213020324707, 9.797892570495605, -1.9029279947280884, 1.4038026332855225, 1.5883514881134033, 0.3172195255756378, 0.21176570653915405, 
476, 1771573774, -73.57801818847656, -73.96165466308594, -46.25371551513672, 9.407699584960938, -1.820173978805542, 0.9227115511894226, 1.6481608152389526, 2.3517582416534424, 1.3973462581634521, 
477, 1771582107, -73.60253143310547, -73.95663452148438, -46.23884963989258, 9.194507598876953, -2.587862730026245, 1.7155522108078003, 0.29298844933509827, 0.7971277236938477, 1.2555712461471558, 
478, 1771590440, -73.60234832763672, -73.95475769042969, -46.23966979980469, 9.300773620605469, -3.363616704940796, -0.6828125715255737, 1.3852818012237549, 1.133263349533081, 0.7989720702171326, 
479, 1771598773, -73.5968017578125, -73.96471405029297, -46.23698806762695, 9.454089164733887, -2.9686760902404785, 1.2617450952529907, 2.4769861698150635, 0.6090937256813049, -0.5285497903823853, 
480, 1771607106, -73.60088348388672, -73.97168731689453, -46.22913360595703, 9.822524070739746, -2.2240853309631348, 0.3816271722316742, 1.9295073747634888, 0.6160351634025574, -0.1877267211675644, 
481, 1771615439, -73.57373809814453, -73.96517944335938, -46.25563430786133, 9.497482299804688, -1.6564593315124512, 1.77178156375885, 1.7242608070373535, 2.162008047103882, 1.0393104553222656, 
482, 1771623772, -73.59752655029297, -73.95873260498047, -46.234378814697266, 9.326095581054688, -2.166425943374634, 1.1714038848876953, 0.42838525772094727, 0.7522260546684265, 1.481386423110962, 
483, 1771632105, -73.5844497680664, -73.95209503173828, -46.25114059448242, 9.25786304473877, -3.293517589569092, 0.18507325649261475, 1.1584166288375854, 1.8556618690490723, 1.1481196880340576, 
484, 1771640438, -73.60009765625, -73.95921325683594, -46.23112869262695, 9.339547157287598, -3.249871253967285, 0.6456118822097778, 2.009244441986084, 0.13835527002811432, -0.03014795109629631, 
485, 1771648771, -73.57887268066406, -73.9671630859375, -46.24626922607422, 9.758726119995117, -2.4905734062194824, 0.11036793142557144, 2.3052685260772705, 1.2488093376159668, -0.46197837591171265, 
486, 1771657104, -73.57597351074219, -73.96636962890625, -46.246742248535156, 9.73475170135498, -1.6813405752182007, 2.00825834274292, 1.8142434358596802, 1.1378995180130005, 0.6246926784515381, 
487, 1771665437, -73.57244110107422, -73.95807647705078, -46.2532958984375, 9.38774585723877, -1.8910328149795532, 0.6302594542503357, 1.1956340074539185, 1.588735580444336, 1.4288772344589233, 
488, 1771673770, -73.56907653808594, -73.95243072509766, -46.26393127441406, 9.189604759216309, -2.86791729927063, 1.521695852279663, 0.6109635233879089, 1.567808747291565, 1.1492466926574707, 
489, 1771682103, -73.58074188232422, -73.95492553710938, -46.25033950805664, 9.286572456359863, -3.3801703453063965, -0.39356139302253723, 1.6936771869659424, 0.5809949040412903, 0.3761834502220154, 
490, 1771690436, -73.56993103027344, -73.96439361572266, -46.2508659362793, 9.61828899383545, -2.817600965499878, 0.9408225417137146, 2.4719655513763428, 0.8123937845230103, -0.519507884979248, 
491, 1771698769, -73.58435821533203, -73.97036743164062, -46.23350143432617, 9.793678283691406, -1.984910249710083, 1.0556048154830933, 1.8262563943862915, 0.2574358880519867, 0.07798253744840622, 
492, 1771707102, -73.55146026611328, -73.96112060546875, -46.266658782958984, 9.457244873046875, -1.7392463684082031, 1.102681279182434, 1.6495438814163208, 2.4665868282318115, 1.288434386253357, 
493, 1771715435, -73.57952880859375, -73.95510864257812, -46.249080657958984, 9.243276596069336, -2.4753990173339844, 1.6216567754745483, 0.18341073393821716, 0.7423901557922363, 1.3936833143234253, 
494, 1771723768, -73.5718002319336, -73.95294189453125, -46.258358001708984, 9.33276081085205, -3.367655038833618, -0.46511006355285645, 1.2375645637512207, 1.4329499006271362, 0.7480509281158447, 
495, 1771732101, -73.58264923095703, -73.96223449707031, -46.240631103515625, 9.48530101776123, -3.038421392440796, 1.1648176908493042, 2.263747453689575, 0.22011591494083405, -0.36495161056518555, 
496, 1771740434, -73.58030700683594, -73.96961212158203, -46.23986053466797, 9.800819396972656, -2.23968505859375, 0.3114731013774872, 1.9430574178695679, 0.7347058653831482, -0.2407994121313095, 
497, 1771748767, -73.55497741699219, -73.96466064453125, -46.26411056518555, 9.58513355255127, -1.6576803922653198, 1.9039655923843384, 1.7590446472167969, 1.9644198417663574, 0.937903642654419, 
498, 1771757100, -73.5776138305664, -73.95858764648438, -46.24849319458008, 9.29114055633545, -2.115464925765991, 1.0364969968795776, 0.605379581451416, 0.8103190660476685, 1.3824642896652222, 
499, 1771765433, -73.56795501708984, -73.95227813720703, -46.2628288269043, 9.195417404174805, -3.1859445571899414, 0.4405645430088043, 1.0247615575790405, 1.7682915925979614, 1.1322132349014282, 
500, 1771773766, -73.58809661865234, -73.95787811279297, -46.23617935180664, 9.267101287841797, -3.242342233657837, 0.4882740080356598, 1.981939673423767, 0.04537561908364296, 0.1878419816493988, 
501, 1771782099, -73.57587432861328, -73.96682739257812, -46.2430305480957, 9.810989379882812, -2.570728302001953, 0.3375343978404999, 2.198047161102295, 1.0124921798706055, -0.5550092458724976, 
502, 1771790432, -73.57554626464844, -73.96775817871094, -46.24144744873047, 9.729705810546875, -1.7357988357543945, 1.7868053913116455, 1.7184205055236816, 0.9510692954063416, 0.5042802095413208, 
503, 1771798765, -73.55857849121094, -73.95858764648438, -46.2606315612793, 9.416650772094727, -1.8828322887420654, 0.7906725406646729, 1.276318907737732, 1.957017421722412, 1.4701420068740845, 
504, 1771807098, -73.5723876953125, -73.95320129394531, -46.25572967529297, 9.173269271850586, -2.8557374477386475, 1.5524736642837524, 0.4280266761779785, 1.1258864402770996, 1.2054699659347534, 
505, 1771815431, -73.58177185058594, -73.95426940917969, -46.24557876586914, 9.350177764892578, -3.408646821975708, -0.5950180292129517, 1.5708569288253784, 0.7367806434631348, 0.5064062476158142, 
506, 1771823764, -73.57128143310547, -73.96466827392578, -46.245418548583984, 9.534017562866211, -2.839681386947632, 1.0506470203399658, 2.6607940196990967, 0.7092965841293335, -0.6034713387489319, 
507, 1771832097, -73.58753204345703, -73.97151947021484, -46.22557830810547, 9.834012985229492, -1.9878435134887695, 0.8367692232131958, 1.8581205606460571, 0.23604798316955566, -0.06308785825967789, 
508, 1771840430, -73.5519790649414, -73.96429443359375, -46.26205062866211, 9.467455863952637, -1.719901204109192, 1.2247599363327026, 1.7866568565368652, 2.368023157119751, 1.0974547863006592, 
509, 1771848763, -73.57703399658203, -73.95845031738281, -46.248172760009766, 9.22292423248291, -2.322906970977783, 1.5954630374908447, 0.1914023905992508, 0.7562218904495239, 1.4142773151397705, 
510, 1771857096, -73.56825256347656, -73.95394897460938, -46.259586334228516, 9.266739845275879, -3.324854612350464, -0.35627374053001404, 1.265484094619751, 1.6107383966445923, 0.9461514353752136, 
511, 1771865429, -73.58464050292969, -73.96068572998047, -46.237422943115234, 9.38575267791748, -3.1286661624908447, 1.1011868715286255, 2.112290859222412, 0.16353407502174377, -0.029738126322627068, 
512, 1771873762, -73.57709503173828, -73.96763610839844, -46.24158477783203, 9.741151809692383, -2.4002420902252197, 0.15530678629875183, 1.9409058094024658, 0.9298862814903259, -0.23990292847156525, 
513, 1771882095, -73.5604248046875, -73.96469116210938, -46.25584411621094, 9.635350227355957, -1.7132785320281982, 2.039705276489258, 1.8769985437393188, 1.650927186012268, 0.74400395154953, 
514, 1771890428, -73.57440948486328, -73.95866394042969, -46.248565673828125, 9.309779167175293, -1.9727256298065186, 0.7663189172744751, 0.9159265756607056, 0.9285544157028198, 1.3816958665847778, 
515, 1771898761, -73.56511688232422, -73.9522933959961, -46.2640266418457, 9.186272621154785, -3.015047311782837, 0.926135241985321, 0.9711765050888062, 1.7045632600784302, 1.1937896013259888, 
516, 1771907094, -73.58922576904297, -73.95671081542969, -46.236331939697266, 9.279609680175781, -3.2906131744384766, 0.15760013461112976, 1.8230291604995728, 0.06753192842006683, 0.2921943664550781, 
517, 1771915427, -73.57431030273438, -73.96546936035156, -46.24358367919922, 9.753928184509277, -2.697601556777954, 0.4613204598426819, 2.469097137451172, 1.033419132232666, -0.5370792746543884, 
518, 1771923760, -73.58013916015625, -73.96763610839844, -46.23440170288086, 9.824858665466309, -1.8694794178009033, 1.5339593887329102, 1.7694443464279175, 0.6881648898124695, 0.422263503074646, 
519, 1771932093, -73.55860137939453, -73.95848083496094, -46.25756072998047, 9.402406692504883, -1.8195593357086182, 0.8846081495285034, 1.440429449081421, 2.1442317962646484, 1.3711684942245483, 
520, 1771940426, -73.57595825195312, -73.95275115966797, -46.24693298339844, 9.148476600646973, -2.7281150817871094, 1.655857801437378, 0.387325644493103, 0.9489177465438843, 1.3378186225891113, 
521, 1771948759, -73.57455444335938, -73.95328521728516, -46.24592590332031, 9.302734375, -3.385449171066284, -0.6018758416175842, 1.5804368257522583, 1.0452274084091187, 0.5313801169395447, 
522, 1771957092, -73.57186126708984, -73.96249389648438, -46.240055084228516, 9.547070503234863, -2.89135479927063, 1.2382076978683472, 2.52683162689209, 0.5970550179481506, -0.46692192554473877, 
523, 1771965425, -73.57867431640625, -73.96846008300781, -46.229793548583984, 9.851778030395508, -2.073380470275879, 0.6420146822929382, 1.891470193862915, 0.5665996670722961, -0.05665868893265724, 
524, 1771973758, -73.54716491699219, -73.9602279663086, -46.25989532470703, 9.545551300048828, -1.7175965309143066, 1.5763709545135498, 1.6692413091659546, 2.3015029430389404, 1.2531124353408813, 
525, 1771982091, -73.57583618164062, -73.95472717285156, -46.24165725708008, 9.213634490966797, -2.3458964824676514, 1.3653560876846313, 0.1885591745376587, 0.7045066952705383, 1.3416863679885864, 
526, 1771990424, -73.5635757446289, -73.95089721679688, -46.26503372192383, 9.282469749450684, -3.423417329788208, -0.1820010244846344, 1.1577762365341187, 1.6476227045059204, 0.8924127221107483, 
527, 1771998757, -73.57890319824219, -73.96125793457031, -46.242225646972656, 9.356729507446289, -3.197864294052124, 0.8008772730827332, 2.2795770168304443, -0.03821643814444542, -0.3827022910118103, 
528, 1772007090, -73.5667724609375, -73.9705810546875, -46.248416900634766, 9.79974365234375, -2.3824119567871094, 0.2105470895767212, 2.264132022857666, 0.9793731570243835, -0.5942246317863464, 
529, 1772015423, -73.54969024658203, -73.96807861328125, -46.26392364501953, 9.628122329711914, -1.6148347854614258, 2.0102756023406982, 1.7855298519134521, 1.6734418869018555, 0.6809927821159363, 
530, 1772023756, -73.55520629882812, -73.96112060546875, -46.2631950378418, 9.328462600708008, -1.8896219730377197, 0.7858205437660217, 1.1062660217285156, 1.1838514804840088, 1.4183497428894043, 
531, 1772032089, -73.5513687133789, -73.95478820800781, -46.27368927001953, 9.21640682220459, -3.0295138359069824, 1.1432665586471558, 0.7773535847663879, 1.6465725898742676, 1.1657934188842773, 
532, 1772040422, -73.5669174194336, -73.95794677734375, -46.256160736083984, 9.35711669921875, -3.348519802093506, -0.015503042377531528, 1.7475439310073853, 0.3441656231880188, 0.4100198447704315, 
533, 1772048755, -73.5482406616211, -73.96652221679688, -46.2668342590332, 9.641571998596191, -2.728146553039551, 0.630183756351471, 2.5506527423858643, 1.0715843439102173, -0.48610690236091614, 
534, 1772057088, -73.56021881103516, -73.9708023071289, -46.25261306762695, 9.827901840209961, -1.9582380056381226, 1.421636700630188, 1.7292042970657349, 0.4993879497051239, 0.17798052728176117, 
535, 1772065421, -73.53479766845703, -73.9622573852539, -46.27878952026367, 9.387629508972168, -1.7801600694656372, 0.8291993737220764, 1.551953673362732, 2.2200756072998047, 1.2742441892623901, 
536, 1772073754, -73.55158996582031, -73.95677947998047, -46.272361755371094, 9.182154655456543, -2.5668978691101074, 1.7038716077804565, 0.2538498640060425, 1.001529335975647, 1.2911750078201294, 
537, 1772082087, -73.55193328857422, -73.95475769042969, -46.27272415161133, 9.352259635925293, -3.3640871047973633, -0.7141098976135254, 1.4430162906646729, 1.1784725189208984, 0.7653918266296387, 
538, 1772090420, -73.54888153076172, -73.9632568359375, -46.26847457885742, 9.515764236450195, -2.9808051586151123, 1.2937371730804443, 2.3721728324890137, 0.6048161387443542, -0.33703213930130005, 
539, 1772098753, -73.55573272705078, -73.9697494506836, -46.25742721557617, 9.845288276672363, -2.2101616859436035, 0.36922523379325867, 1.8927254676818848, 0.4764631688594818, -0.05258602276444435, 
540, 1772107086, -73.52867889404297, -73.96355438232422, -46.28348922729492, 9.52523136138916, -1.7295001745224, 1.7490628957748413, 1.7607096433639526, 2.1366240978240967, 1.006575345993042, 
541, 1772115419, -73.55619812011719, -73.9583511352539, -46.26393127441406, 9.264591217041016, -2.225750207901001, 1.209610104560852, 0.47392740845680237, 0.6524586081504822, 1.3214255571365356, 
542, 1772123752, -73.53943634033203, -73.95318603515625, -46.284358978271484, 9.214276313781738, -3.2144863605499268, 0.14688877761363983, 1.1970940828323364, 1.8431874513626099, 0.9999669194221497, 
543, 1772132085, -73.5654525756836, -73.96189880371094, -46.252723693847656, 9.298711776733398, -3.1630423069000244, 0.7791826128959656, 2.0521485805511475, -0.20565670728683472, -0.16792693734169006, 
544, 1772140418, -73.5493392944336, -73.96977233886719, -46.26162338256836, 9.761575698852539, -2.4288759231567383, 0.32555896043777466, 2.1814236640930176, 1.120994210243225, -0.40347546339035034, 
545, 1772148751, -73.53877258300781, -73.96778106689453, -46.26861572265625, 9.725212097167969, -1.6847076416015625, 1.9300525188446045, 1.7356845140457153, 1.3758814334869385, 0.7441319823265076, 
546, 1772157084, -73.53960418701172, -73.95829010009766, -46.27145767211914, 9.326911926269531, -1.9039562940597534, 0.6563823819160461, 1.0975315570831299, 1.5081278085708618, 1.6004927158355713, 
547, 1772165417, -73.53994750976562, -73.95193481445312, -46.278350830078125, 9.186388969421387, -3.022130250930786, 1.2834737300872803, 0.6870378255844116, 1.5335370302200317, 1.20603346824646, 
548, 1772173750, -73.55377197265625, -73.95602416992188, -46.2580451965332, 9.325660705566406, -3.426445722579956, -0.29388266801834106, 1.8244891166687012, 0.3542320430278778, 0.2848430871963501, 
549, 1772182083, -73.54254913330078, -73.96672821044922, -46.26116943359375, 9.69506549835205, -2.74487042427063, 0.7456786036491394, 2.5083892345428467, 0.8341659307479858, -0.7213736772537231, 
550, 1772190416, -73.55545806884766, -73.97090911865234, -46.24732208251953, 9.803873062133789, -1.85537588596344, 1.2975878715515137, 1.6747227907180786, 0.4116848409175873, 0.25446462631225586, 
551, 1772198749, -73.52308654785156, -73.96170043945312, -46.28094482421875, 9.384550094604492, -1.72297203540802, 1.1023774147033691, 1.5308220386505127, 2.4066238403320312, 1.3486278057098389, 
552, 1772207082, -73.54783630371094, -73.95646667480469, -46.26734161376953, 9.133830070495605, -2.5487940311431885, 1.728763461112976, 0.12823764979839325, 0.8399803638458252, 1.2636910676956177, 
553, 1772215415, -73.5465316772461, -73.95457458496094, -46.26947784423828, 9.357735633850098, -3.382767915725708, -0.63090980052948, 1.4242923259735107, 1.231724500656128, 0.7377027273178101, 
554, 1772223748, -73.5490951538086, -73.96421813964844, -46.25502014160156, 9.482403755187988, -2.965406656265259, 1.1387752294540405, 2.4729905128479004, 0.35866332054138184, -0.40680527687072754, 
555, 1772232081, -73.55167388916016, -73.97126770019531, -46.249542236328125, 9.792815208435059, -2.1922576427459717, 0.2935958504676819, 1.8449037075042725, 0.6840665340423584, -0.22033363580703735, 
556, 1772240414, -73.52066802978516, -73.96504211425781, -46.27924346923828, 9.46663761138916, -1.7169867753982544, 1.8463528156280518, 1.8488481044769287, 2.1689233779907227, 1.0347254276275635, 
557, 1772248747, -73.55033111572266, -73.95873260498047, -46.25685501098633, 9.268234252929688, -2.170215368270874, 1.166886806488037, 0.5403963327407837, 0.6005386114120483, 1.4778262376785278, 
558, 1772257080, -73.540283203125, -73.9534683227539, -46.27146530151367, 9.23196029663086, -3.181079864501953, 0.2580466866493225, 1.2105928659439087, 1.617167592048645, 1.0797041654586792, 
559, 1772265413, -73.5628890991211, -73.96170043945312, -46.24381637573242, 9.3652925491333, -3.2105653285980225, 0.660033643245697, 1.9698500633239746, -0.12456202507019043, -0.08959859609603882, 
560, 1772273746, -73.55195617675781, -73.9695816040039, -46.24928665161133, 9.818273544311523, -2.5675816535949707, 0.30055925250053406, 2.199993848800659, 1.0053715705871582, -0.4179475009441376, 
561, 1772282079, -73.54598236083984, -73.96902465820312, -46.253257751464844, 9.740357398986816, -1.7455743551254272, 1.885780692100525, 1.7847360372543335, 1.2421751022338867, 0.5645505785942078, 
562, 1772290412, -73.53765869140625, -73.96208190917969, -46.26253890991211, 9.370770454406738, -1.8979480266571045, 0.644757866859436, 1.3258057832717896, 1.5860719680786133, 1.2985265254974365, 
563, 1772298745, -73.5381851196289, -73.95628356933594, -46.269920349121094, 9.162620544433594, -2.878236770629883, 1.424350380897522, 0.6098620891571045, 1.5297718048095703, 1.1369518041610718, 
564, 1772307078, -73.55169677734375, -73.959228515625, -46.25386428833008, 9.335225105285645, -3.3269615173339844, -0.357714980840683, 1.773465633392334, 0.4162953495979309, 0.41007107496261597, 
565, 1772315411, -73.53826141357422, -73.96875, -46.259281158447266, 9.60509204864502, -2.7890214920043945, 0.9174243807792664, 2.4808027744293213, 0.882038950920105, -0.5403323173522949, 
566, 1772323744, -73.5577163696289, -73.97327423095703, -46.238059997558594, 9.873963356018066, -1.976909875869751, 1.1464219093322754, 1.6355586051940918, 0.2688598036766052, 0.2154541313648224, 
567, 1772332077, -73.52696990966797, -73.96382904052734, -46.269691467285156, 9.422842025756836, -1.761414885520935, 1.1463127136230469, 1.5643508434295654, 2.425143003463745, 1.3284183740615845, 
568, 1772340410, -73.55358123779297, -73.95909118652344, -46.26099395751953, 9.263861656188965, -2.5699949264526367, 1.5298571586608887, 0.057593610137701035, 0.6924680471420288, 1.2809807062149048, 
569, 1772348743, -73.5485610961914, -73.95590209960938, -46.26704788208008, 9.321709632873535, -3.402594804763794, -0.5058150887489319, 1.423165202140808, 1.3997538089752197, 0.8501492142677307, 
570, 1772357076, -73.55616760253906, -73.96590423583984, -46.248844146728516, 9.476558685302734, -3.012549638748169, 1.0546411275863647, 2.4980411529541016, 0.17198677361011505, -0.39543259143829346, 
571, 1772365409, -73.55463409423828, -73.97322082519531, -46.24556350708008, 9.780194282531738, -2.149238109588623, 0.33568859100341797, 2.1034536361694336, 0.6678014993667603, -0.21508274972438812, 
572, 1772373742, -73.53572082519531, -73.96807861328125, -46.26359558105469, 9.543784141540527, -1.6218641996383667, 1.9483819007873535, 1.7153726816177368, 1.8462870121002197, 0.9615455865859985, 
573, 1772382075, -73.56100463867188, -73.96192932128906, -46.24673843383789, 9.282931327819824, -2.099094867706299, 1.0940988063812256, 0.4330214858055115, 0.7690033912658691, 1.4053635597229004, 
574, 1772390408, -73.54901123046875, -73.95558166503906, -46.26365280151367, 9.255278587341309, -3.257997989654541, 0.4388781487941742, 0.9896699786186218, 1.7819950580596924, 1.174092411994934, 
575, 1772398741, -73.57598876953125, -73.96255493164062, -46.23216247558594, 9.294272422790527, -3.2642323970794678, 0.4658544361591339, 1.9217207431793213, -0.14092952013015747, 0.030288830399513245, 
576, 1772407074, -73.56306457519531, -73.97089385986328, -46.23896026611328, 9.81781005859375, -2.542189598083496, 0.3279153108596802, 2.1676430702209473, 0.996560275554657, -0.4329318404197693, 
577, 1772415407, -73.564208984375, -73.9717025756836, -46.235408782958984, 9.70099925994873, -1.750282883644104, 1.7377153635025024, 1.7560737133026123, 0.8904917240142822, 0.5277172923088074, 
578, 1772423740, -73.5519790649414, -73.9627456665039, -46.25074768066406, 9.318804740905762, -1.8738534450531006, 0.726590633392334, 1.219429612159729, 1.8892160654067993, 1.427263617515564, 
579, 1772432073, -73.5629653930664, -73.95729064941406, -46.247562408447266, 9.150282859802246, -2.8469998836517334, 1.4974805116653442, 0.5714151263237, 1.1808545589447021, 1.1985540390014648, 
580, 1772440406, -73.57076263427734, -73.95869445800781, -46.2372932434082, 9.34782600402832, -3.375131845474243, -0.4519573748111725, 1.6203694343566895, 0.7019965648651123, 0.5217748284339905, 
581, 1772448739, -73.56146240234375, -73.9681167602539, -46.238128662109375, 9.64700698852539, -2.8192808628082275, 0.8912668824195862, 2.544684648513794, 0.8041973114013672, -0.5539846420288086, 
582, 1772457072, -73.5743408203125, -73.97333526611328, -46.22420883178711, 9.799226760864258, -2.004899263381958, 1.0436900854110718, 1.768983006477356, 0.3599696457386017, 0.14150583744049072, 
583, 1772465405, -73.54085540771484, -73.96461486816406, -46.25572967529297, 9.475213050842285, -1.7710095643997192, 1.0875349044799805, 1.579898715019226, 2.4097743034362793, 1.281774640083313, 
584, 1772473738, -73.56551361083984, -73.95880889892578, -46.24156188964844, 9.21064567565918, -2.4195637702941895, 1.6467418670654297, 0.1966276466846466, 0.8442579507827759, 1.340482473373413, 
585, 1772482071, -73.56092834472656, -73.95580291748047, -46.24843978881836, 9.333272933959961, -3.2832188606262207, -0.5080435276031494, 1.2822612524032593, 1.416146993637085, 0.8179522156715393, 
586, 1772490404, -73.57125854492188, -73.96339416503906, -46.23506164550781, 9.35107135772705, -3.032667875289917, 1.3132647275924683, 2.2163612842559814, 0.2431943565607071, -0.1191830262541771, 
587, 1772498737, -73.5714111328125, -73.97041320800781, -46.23072814941406, 9.782783508300781, -2.365234613418579, 0.1356603503227234, 2.005812406539917, 0.7190812826156616, -0.2305281162261963, 
588, 1772507070, -73.54749298095703, -73.96602630615234, -46.252967834472656, 9.584670066833496, -1.6790788173675537, 2.072892427444458, 1.7546136379241943, 1.8992316722869873, 0.8960244655609131, 
589, 1772515403, -73.56494903564453, -73.9599609375, -46.241458892822266, 9.359599113464355, -2.0799708366394043, 0.723904550075531, 0.8117790818214417, 0.8406463265419006, 1.4108448028564453, 
590, 1772523736, -73.55159759521484, -73.95338439941406, -46.25971603393555, 9.213874816894531, -3.1690139770507812, 0.6987197399139404, 1.0159759521484375, 1.8994622230529785, 1.1227872371673584, 
591, 1772532069, -73.57495880126953, -73.95960998535156, -46.23163986206055, 9.261247634887695, -3.3458988666534424, 0.2516225576400757, 1.9561973810195923, -0.005916888825595379, 0.08868928998708725, 
592, 1772540402, -73.55064392089844, -73.96935272216797, -46.24910354614258, 9.685638427734375, -2.6139230728149414, 0.3483504056930542, 2.5104641914367676, 1.2342603206634521, -0.6814411282539368, 
593, 1772548735, -73.55836486816406, -73.97301483154297, -46.23759460449219, 9.765397071838379, -1.7648890018463135, 1.7188527584075928, 1.926536202430725, 0.6074286699295044, 0.22462403774261475, 
594, 1772557068, -73.53560638427734, -73.96418762207031, -46.26136779785156, 9.362360000610352, -1.7943295240402222, 0.8132029175758362, 1.5579475164413452, 2.0669023990631104, 1.3957581520080566, 
595, 1772565401, -73.54522705078125, -73.95886993408203, -46.262733459472656, 9.176424980163574, -2.7363057136535645, 1.7639094591140747, 0.41883113980293274, 1.1928932666778564, 1.2137433290481567, 
596, 1772573734, -73.55309295654297, -73.95878601074219, -46.25202941894531, 9.334545135498047, -3.4279274940490723, -0.6552626490592957, 1.8106573820114136, 0.7609348297119141, 0.6483346819877625, 
597, 1772582067, -73.54145050048828, -73.96863555908203, -46.25334167480469, 9.551843643188477, -3.010159730911255, 1.0325044393539429, 2.765761137008667, 0.8043254613876343, -0.6022419333457947, 
598, 1772590400, -73.55738067626953, -73.9781494140625, -46.231815338134766, 9.723193168640137, -2.1341562271118164, 0.7116917371749878, 2.128478765487671, 0.011513599194586277, -0.2933342456817627, 
599, 1772598733, -73.52130889892578, -73.97186279296875, -46.26512908935547, 9.582237243652344, -1.5959523916244507, 1.2882475852966309, 2.000253915786743, 2.372889995574951, 0.9539637565612793, 
600, 1772607066, -73.55088806152344, -73.96630096435547, -46.2440071105957, 9.176811218261719, -2.1505022048950195, 1.7141788005828857, 0.40494829416275024, 0.5326096415519714, 1.434205174446106, 
601, 1772615399, -73.53517150878906, -73.96156311035156, -46.26309585571289, 9.287260055541992, -3.300588369369507, -0.3852415084838867, 1.386998176574707, 1.7469805479049683, 0.9845728278160095, 
602, 1772623732, -73.54959869384766, -73.96973419189453, -46.243125915527344, 9.285588264465332, -3.267965316772461, 1.139577865600586, 2.101046085357666, 0.18330825865268707, -0.22012872993946075, 
603, 1772632065, -73.54264831542969, -73.97805786132812, -46.243560791015625, 9.867775917053223, -2.494675397872925, -0.026918627321720123, 2.2983782291412354, 0.8279673457145691, -0.4198428988456726, 
604, 1772640398, -73.52385711669922, -73.97567749023438, -46.260066986083984, 9.732043266296387, -1.6198501586914062, 2.184478521347046, 1.9357832670211792, 1.6113276481628418, 0.7223342657089233, 
605, 1772648731, -73.53669738769531, -73.9687728881836, -46.25175476074219, 9.352973937988281, -1.9199923276901245, 0.7288627624511719, 0.9385696053504944, 1.068075180053711, 1.4115619659423828, 
606, 1772657064, -73.52268981933594, -73.96273803710938, -46.2734489440918, 9.128621101379395, -3.010627508163452, 1.1354446411132812, 0.8513019680976868, 1.871312141418457, 1.0966863632202148, 
607, 1772665397, -73.54492950439453, -73.9691162109375, -46.24675750732422, 9.306839942932129, -3.3568801879882812, 0.05409495532512665, 1.7884498834609985, 0.003393885912373662, 0.10733645409345627, 
